Time,aX,aY,aZ,gX,gY,gZ,mX,mY,mZ,Prs,Temp
0,3.202,0.186,-1.108,-1.234,3.832,-1.339,0.297,0.06,-0.818,99086.156,41.714
0.014752,4.123,-0.136,-0.031,-18.524,-4.043,-1.592,0.298,0.055,-0.821,,
0.029736,4.366,0.31,1.296,-28.997,-1.531,6.186,0.303,0.061,-0.812,,
0.044864,5.93,-0.23,0.914,-58.931,-7.805,-5.364,0.303,0.053,-0.816,,
0.059904,4.873,-0.098,0.668,-83.86,-6.816,0.796,0.303,0.056,-0.813,,
0.075032,4.303,0.209,-0.785,-60.891,19.801,4.226,0.299,0.051,-0.807,99086.359,41.704
0.090048,3.717,-0.611,-0.269,-24.684,7.919,3.08,0.3,0.05,-0.807,,
0.109056,4.779,0.474,0.084,44.485,-0.744,5.084,0.297,0.049,-0.819,,
0.123312,5.7,-1.214,0.225,54.136,-11.664,1.977,0.299,0.052,-0.807,,
0.137248,6.112,0.52,0.316,53.935,0.061,8.654,0.298,0.05,-0.815,,
0.151472,6.44,-0.018,1.351,11.76,-9.765,2.074,0.297,0.049,-0.822,99084.422,41.678
0.165448,7.283,0.38,0.142,-13.44,-1.339,4.532,0.296,0.056,-0.818,,
0.179552,6.171,0.395,0.963,-66.001,-9.765,1.908,0.293,0.051,-0.819,,
0.193784,5.749,-0.447,-0.393,-63.07,2.686,-2.433,0.296,0.045,-0.81,,
0.210768,5.12,0.445,0.691,-26.792,5.399,-0.306,0.295,0.048,-0.809,,
0.224848,4.934,0.096,0.186,30.896,-5.25,2.249,0.297,0.044,-0.807,99074.125,41.663
0.238936,6.321,-0.607,-0.293,63.455,12.206,-0.341,0.299,0.045,-0.811,,
0.252856,7.257,-0.816,-0.259,60.235,15.628,5.031,0.297,0.047,-0.814,,
0.267056,8.015,0.539,-0.631,10.159,9.257,6.571,0.297,0.048,-0.814,,
0.281112,7.794,-0.449,-0.651,-42.263,2.415,-1.558,0.298,0.051,-0.816,,
0.295328,8.404,-0.885,-0.045,-61.451,-7.49,-8.111,0.295,0.05,-0.815,99055.187,41.653
0.313504,8.359,0.052,0.032,-60.76,-26.696,-23.38,0.296,0.043,-0.818,,
0.327424,8.126,-0.124,-0.053,-62.431,-36.715,-36.015,0.294,0.046,-0.813,,
0.341536,8.086,-0.078,-0.011,-60.112,-44.231,-49.403,0.294,0.043,-0.821,,
0.355472,8.114,-0.009,-0.217,-58.459,-52.369,-61.311,0.296,0.053,-0.83,,
0.36976,7.995,-0.053,0.048,-55.099,-59.614,-73.596,0.295,0.056,-0.828,99052.687,41.647
0.383736,7.914,0.004,-0.094,-49.149,-66.036,-84.586,0.289,0.063,-0.841,,
0.400608,7.871,0.02,-0.161,-43.75,-73.614,-97.099,0.295,0.069,-0.838,,
0.414688,7.808,0.065,-0.072,-37.966,-78.645,-106.374,0.291,0.076,-0.845,,
0.428776,7.836,0.109,-0.269,-29.811,-82.346,-114.371,0.285,0.084,-0.856,,
0.442864,7.789,0.164,-0.269,-20.064,-83.948,-121.223,0.284,0.095,-0.856,99019.594,41.637
0.45696,7.777,0.184,-0.352,-8.977,-84.901,-126.219,0.286,0.103,-0.867,,
0.470888,7.783,0.271,-0.465,1.4,-84.77,-128.791,0.285,0.112,-0.869,,
0.485136,7.818,0.355,-0.455,11.279,-82.539,-128.73,0.277,0.14,-0.897,,
0.503248,7.788,0.507,-0.5,24.395,-77.262,-126.271,0.273,0.153,-0.897,,
0.51748,7.715,0.621,-0.669,36.304,-71.601,-122.255,0.267,0.167,-0.893,98995.844,41.627
0.531576,7.862,0.583,-0.66,48.493,-64.444,-113.872,0.261,0.181,-0.911,,
0.545696,7.872,0.713,-0.748,60.944,-56.551,-103.618,0.256,0.194,-0.914,,
0.559928,7.974,0.796,-0.641,76.615,-47.67,-91.446,0.252,0.2,-0.907,,
0.574,8.171,0.858,-0.803,91.105,-39.751,-76.58,0.251,0.214,-0.916,,
0.591152,7.913,0.908,-0.868,102.515,-32.673,-55.991,0.239,0.24,-0.925,98930.906,41.62
0.605136,7.949,0.712,-0.876,107.87,-28.254,-39.042,0.235,0.256,-0.928,,
0.619056,7.9,0.941,-0.974,115.631,-23.949,-20.134,0.235,0.263,-0.931,,
0.633144,7.893,1.215,-0.974,119.499,-20.825,-1.942,0.232,0.27,-0.924,,
0.647064,7.816,1.067,-0.75,134.488,-21.035,15.61,0.229,0.281,-0.93,,
0.661144,7.846,1.01,-0.719,141.12,-19.224,32.585,0.23,0.29,-0.929,98890.687,41.622
0.675264,7.759,0.847,-0.896,156.581,-16.196,49.035,0.228,0.304,-0.923,,
0.705464,7.636,0.845,-0.596,186.786,-14.131,74.095,0.228,0.307,-0.916,,
0.719848,7.724,0.765,-0.624,200.436,-14.446,81.209,0.228,0.314,-0.91,,
0.734008,7.526,0.589,-0.657,210.289,-15.137,85.811,0.233,0.323,-0.901,,
0.74832,7.537,0.518,-0.624,216.221,-15.645,87.115,0.231,0.325,-0.887,98874.5,41.619
0.76252,7.448,0.363,-0.67,222.023,-17.937,84.464,0.235,0.331,-0.881,,
0.776736,7.491,0.289,-0.618,229.53,-19.714,78.549,0.236,0.335,-0.88,,
0.793888,7.451,0.189,-0.712,237.939,-19.556,66.78,0.241,0.338,-0.877,,
0.808008,7.504,0.182,-0.657,241.929,-18.034,56.333,0.24,0.346,-0.858,,
0.822264,7.427,0.175,-0.705,247.511,-15.146,44.494,0.244,0.355,-0.857,98842.516,41.615
0.836448,7.47,0.234,-0.752,251.274,-11.358,30.704,0.247,0.364,-0.848,,
0.850536,7.469,0.225,-0.833,255.316,-5.819,20.212,0.249,0.37,-0.832,,
0.8648,7.306,0.246,-0.834,262.465,-0.044,12.233,0.242,0.381,-0.814,,
0.878888,7.253,0.311,-0.698,267.479,5.67,4.681,0.249,0.387,-0.81,,
0.89736,7.275,0.377,-0.595,271.661,9.511,-0.184,0.247,0.401,-0.797,98791.953,41.607
0.911528,7.18,0.364,-0.537,271.766,10.745,-0.901,0.248,0.41,-0.761,,
0.925704,7.21,0.383,-0.606,269.911,9.45,-0.49,0.242,0.418,-0.746,,
0.940016,7.182,0.497,-0.535,266.105,5.451,1.059,0.243,0.421,-0.734,,
0.9542,7.149,0.469,-0.418,262.999,0.534,4.069,0.245,0.427,-0.716,,
0.968496,7.151,0.531,-0.49,260.024,-4.602,6.834,0.24,0.427,-0.698,98754.875,41.607
0.982656,7.06,0.518,-0.504,255.491,-10.089,9.573,0.243,0.428,-0.683,,
0.999768,7,0.505,-0.438,254.896,-16.914,13.055,0.242,0.431,-0.668,,
1.014072,6.979,0.465,-0.548,254.896,-20.335,14.534,0.243,0.433,-0.645,,
1.028168,6.961,0.391,-0.572,255.937,-22.733,15.409,0.245,0.424,-0.629,,
1.04244,6.876,0.389,-0.616,259.254,-24.15,15.024,0.245,0.428,-0.626,98704.531,41.612
1.056568,6.808,0.39,-0.61,261.441,-24.806,13.659,0.249,0.424,-0.599,,
1.070664,6.878,0.422,-0.651,266.044,-22.75,12.565,0.248,0.412,-0.582,,
1.084976,6.943,0.375,-0.708,271.092,-20.851,11.261,0.248,0.408,-0.581,,
1.103224,7.279,0.343,-0.67,278.862,-16.826,11.235,0.251,0.402,-0.572,,
1.117504,7.269,0.445,-0.797,279.939,-14.717,11.235,0.257,0.384,-0.549,98641.672,41.598
1.131664,7.053,0.419,-0.837,285.705,-12.145,11.104,0.258,0.374,-0.538,,
1.145848,6.593,0.509,-0.826,286.676,-7.787,10.552,0.26,0.365,-0.526,,
1.160152,4.905,0.398,-0.668,286.676,-4.174,11.813,0.256,0.36,-0.515,,
1.174304,3.545,0.428,-0.656,286.676,-1.12,15.4,0.261,0.342,-0.495,,
1.191568,2.694,0.386,-0.414,286.676,5.687,19.337,0.261,0.326,-0.484,98588.297,41.6
1.20576,2.192,0.268,-0.481,286.676,9.363,23.336,0.265,0.31,-0.473,,
1.219848,1.799,0.258,-0.488,286.676,12.565,27.948,0.263,0.297,-0.462,,
1.23412,1.375,0.094,-0.253,286.676,13.256,29.636,0.264,0.256,-0.454,,
1.248216,1.277,0.114,-0.157,286.676,13.046,31.316,0.259,0.238,-0.436,,
1.262504,0.987,0.11,-0.137,286.676,12.626,29.435,0.266,0.215,-0.433,98548.703,41.594
1.276632,0.748,-0.059,-0.173,286.676,12.53,23.695,0.267,0.196,-0.423,,
1.29492,0.629,0.064,-0.147,286.676,8.365,19.224,0.266,0.177,-0.422,,
1.3092,0.466,-0.073,-0.015,286.676,6.064,14.735,0.265,0.155,-0.421,,
1.323376,0.337,0.15,0.05,286.676,6.65,10.745,0.27,0.137,-0.422,,
1.337656,0.25,0.022,0.078,286.676,6.843,8.269,0.264,0.102,-0.433,98485.203,41.588
1.351808,0.169,0.062,0.086,286.396,4.97,10.176,0.266,0.082,-0.437,,
1.365952,0.069,-0.047,0.004,284.979,5.145,8.671,0.268,0.07,-0.438,,
1.380248,-0.027,0.056,0.152,281.348,5.303,6.869,0.268,0.06,-0.439,,
1.397424,-0.169,0.11,0.119,278.469,5.372,4.156,0.269,0.038,-0.449,,
1.411672,-0.261,0.119,0.121,281.444,5.451,3.045,0.27,0.026,-0.451,98443.656,41.583
1.425728,-0.301,0.001,0.1,281.103,3.395,2.118,0.264,0.014,-0.457,,
1.439832,-0.342,0.025,0.061,279.449,0.892,0.507,0.265,-0.006,-0.473,,
1.454072,-0.511,0.122,0.141,279.694,-3.237,-0.376,0.266,-0.03,-0.504,,
1.46816,-0.582,0.237,0.029,279.834,-6.694,-1.461,0.27,-0.036,-0.52,,
1.482368,-0.623,0.134,0.032,282.319,-9.783,-1.094,0.273,-0.042,-0.533,98392.906,41.586
1.500696,-0.544,0.181,0.054,283.658,-10.316,-1.347,0.267,-0.05,-0.551,,
1.514808,-0.594,0.199,0.019,285.889,-8.627,-1.741,0.27,-0.058,-0.558,,
1.529112,-0.608,0.14,-0.004,286.606,-8.251,-0.341,0.27,-0.068,-0.57,,
1.54324,-0.6,0.151,0,286.668,-7.718,2.205,0.267,-0.075,-0.588,,
1.557552,-0.651,0.19,-0.008,286.676,-8.26,5.793,0.268,-0.084,-0.631,98348.531,41.58
1.571664,-0.595,0.246,-0.001,286.676,-8.592,8.671,0.271,-0.086,-0.642,,
1.588728,-0.654,0.257,-0.001,286.676,-8.453,12.574,0.274,-0.092,-0.658,,
1.60292,-0.654,0.207,-0.037,286.676,-9.118,14.42,0.269,-0.087,-0.679,,
1.61684,-0.656,0.237,0.014,286.676,-9.056,16.66,0.271,-0.085,-0.702,,
1.631136,-0.678,0.259,0.01,286.676,-9.922,15.785,0.273,-0.087,-0.708,98300.484,41.579
1.645088,-0.636,0.126,-0.033,286.676,-9.459,15.05,0.266,-0.086,-0.731,,
1.6592,-0.632,0.078,0.031,286.676,-9.056,14.429,0.268,-0.078,-0.746,,
1.673392,-0.667,0.066,-0.009,286.676,-7.805,11.743,0.265,-0.065,-0.787,,
1.691568,-0.646,0.054,-0.026,286.676,-6.073,6.571,0.262,-0.057,-0.804,,
1.705776,-0.665,0.032,-0.075,286.676,-3.045,3.806,0.263,-0.051,-0.81,98261.656,41.571
1.719976,-0.663,0.21,-0.09,286.676,-0.543,1.487,0.259,-0.04,-0.822,,
1.73404,-0.663,0.056,-0.02,286.676,1.715,1.286,0.263,-0.022,-0.837,,
1.748352,-0.653,0.048,0.072,286.676,2.713,2.476,0.262,-0.012,-0.853,,
1.762464,-0.627,0.042,0.111,286.676,1.689,2.59,0.262,0,-0.864,,
1.776776,-0.675,0.106,0.091,286.676,0.464,3.08,0.26,0.029,-0.889,98207.297,41.574
1.793848,-0.665,0.169,0.019,286.676,-2.38,1.566,0.259,0.049,-0.894,,
1.80776,-0.623,0.165,-0.002,286.37,-4.314,1.085,0.256,0.062,-0.897,,
1.82208,-0.623,0.081,0.018,285.941,-4.734,1.645,0.256,0.076,-0.911,,
1.836128,-0.624,0.113,0.075,285.539,-5.863,2.004,0.257,0.098,-0.924,,
1.85032,-0.623,0.144,0.095,283.876,-7.026,3.553,0.255,0.116,-0.92,98162.937,41.568
1.864416,-0.647,0.189,-0.002,281.575,-8.549,4.804,0.254,0.131,-0.922,,
1.882632,-0.596,0.2,0.018,279.703,-8.19,6.318,0.249,0.167,-0.932,,
1.896856,-0.597,0.126,0.091,279.02,-10.5,7.262,0.249,0.189,-0.931,,
1.9108,-0.63,0.163,-0.003,277.051,-12.084,6.536,0.249,0.199,-0.919,,
1.925016,-0.6,0.075,0.008,277.611,-11.865,6.247,0.249,0.214,-0.906,98113.672,41.555
1.939008,-0.59,0.019,-0.05,280.464,-11.533,5.276,0.244,0.228,-0.918,,
1.953056,-0.6,0.01,-0.088,284.629,-9.511,4.76,0.245,0.245,-0.919,,
1.967296,-0.583,0.02,-0.075,286.641,-6.213,2.301,0.245,0.267,-0.909,,
1.984368,-0.603,0.153,-0.1,286.676,-3.763,1.426,0.242,0.304,-0.894,,
1.99848,-0.555,0.074,-0.014,286.676,-0.962,0.709,0.242,0.317,-0.885,98076.062,41.558
2.012536,-0.554,0.078,-0.015,286.676,1.776,1.741,0.238,0.331,-0.868,,
2.026464,-0.561,0.18,0.033,286.676,3.439,0.928,0.24,0.34,-0.86,,
2.040656,-0.558,0.067,-0.026,286.676,5.329,1.82,0.242,0.357,-0.845,,
2.054576,-0.561,0.059,0.001,286.676,5.267,2.695,0.24,0.371,-0.83,,
2.068824,-0.57,0.168,-0.031,286.676,5.372,2.476,0.24,0.386,-0.828,98046.703,41.555
2.086944,-0.555,0.123,0.058,286.326,4.62,2.949,0.242,0.406,-0.786,,
2.100872,-0.553,-0.002,0.07,285.066,3.535,3.054,0.238,0.412,-0.775,,
2.115104,-0.55,0.081,0.033,283.885,3.211,3.01,0.242,0.417,-0.755,,
2.129096,-0.548,0.08,0.015,280.892,2.223,2.555,0.242,0.433,-0.742,,
2.143304,-0.553,0.032,0.002,277.016,1.138,2.223,0.239,0.432,-0.724,97999.969,41.549
2.157264,-0.543,0.014,-0.018,274.015,1.776,0.788,0.241,0.436,-0.707,,
2.171312,-0.531,0.025,0.019,272.764,1.934,-0.149,0.241,0.434,-0.692,,
2.188384,-0.507,0.091,0.051,271.057,3.64,-1.995,0.242,0.438,-0.678,,
2.202424,-0.539,0.111,0.064,269.08,3.001,-2.065,0.239,0.437,-0.647,,
2.216496,-0.529,0.136,-0.015,267.794,2.966,-0.726,0.236,0.431,-0.633,97956.047,41.545
2.230576,-0.51,0.084,0.029,265.274,1.619,2.074,0.24,0.433,-0.614,,
2.24452,-0.509,0.063,-0.042,264.294,0.936,3.273,0.242,0.432,-0.592,,
2.258792,-0.477,0.119,-0.031,266.464,2.214,4.524,0.239,0.421,-0.575,,
2.27284,-0.529,0.132,-0.135,270.603,3.622,6.37,0.237,0.419,-0.561,,
2.291072,-0.504,0.132,-0.051,273,4.839,7.997,0.236,0.407,-0.551,97922.797,41.546
2.305168,-0.482,0.131,-0.018,274.724,5.635,8.943,0.244,0.405,-0.533,,
2.31932,-0.491,0.066,-0.025,271.845,5.95,9.844,0.245,0.383,-0.505,,
2.333528,-0.49,0.001,-0.016,267.654,5.294,9.896,0.242,0.371,-0.5,,
2.347456,-0.511,0.015,-0.103,264.862,5.233,9.196,0.239,0.361,-0.493,,
2.361672,-0.478,0.081,0.018,262.544,5.311,7.866,0.242,0.35,-0.477,97875.922,41.545
2.375696,-0.501,0.005,-0.053,261.021,5.294,6.282,0.249,0.335,-0.456,,
2.388256,-0.49,0.07,-0.012,258.3,5.81,4.944,0.244,0.322,-0.451,,
2.402344,-0.462,0.08,-0.034,258.204,6.099,3.824,0.245,0.304,-0.433,,
2.416384,-0.477,0.048,-0.015,257.18,6.738,2.957,0.244,0.292,-0.431,,
2.430664,-0.477,0.044,-0.008,256.821,6.825,3.237,0.246,0.277,-0.429,97848.422,41.545
2.444744,-0.457,0.067,0.006,253.566,5.976,2.835,0.248,0.266,-0.424,,
2.470704,-0.484,0.086,-0.001,249.086,3.325,2.721,0.248,0.229,-0.412,,
2.488072,-0.474,0.095,0.012,246.269,2.529,3.868,0.241,0.2,-0.405,,
2.502296,-0.462,0.067,0.015,243.898,1.54,4.568,0.241,0.189,-0.404,,
2.516544,-0.436,0.169,0.003,239.409,1.234,4.375,0.242,0.171,-0.402,97803.078,41.54
2.53068,-0.449,0.056,0.01,236.084,1.286,4.594,0.245,0.154,-0.396,,
2.544784,-0.466,0.116,-0.006,233.739,1.645,6.466,0.245,0.14,-0.402,,
2.559024,-0.429,0.054,-0.004,232.19,2.013,6.466,0.248,0.125,-0.413,,
2.573128,-0.438,0.017,0.014,230.081,0.919,5.46,0.248,0.114,-0.411,,
2.591552,-0.452,0.119,0.018,228.769,0.98,6.142,0.253,0.083,-0.417,97782.547,41.527
2.605712,-0.422,0.116,-0.034,228.48,0.7,7.945,0.252,0.07,-0.419,,
2.619856,-0.434,0.135,-0.014,229.679,-0.096,10.806,0.251,0.061,-0.426,,
2.634152,-0.432,0.105,-0.042,228.952,-0.157,12.626,0.251,0.042,-0.435,,
2.648296,-0.42,0.11,0.018,228.541,-0.744,13.659,0.249,0.029,-0.432,,
2.662656,-0.425,0.084,0.007,224.228,-0.858,13.352,0.253,0.016,-0.441,97751.672,41.528
2.676832,-0.434,0.042,0.001,223.886,-2.634,13.326,0.248,0.004,-0.449,,
2.693928,-0.433,0.087,-0.064,221.673,-3.483,13.493,0.252,-0.023,-0.471,,
2.708224,-0.424,0.077,0.001,221.095,-3.622,12.679,0.253,-0.034,-0.481,,
2.72236,-0.4,0.115,-0.045,221.401,-3.736,12.477,0.248,-0.042,-0.498,,
2.736624,-0.432,0.052,-0.001,218.452,-3.99,12.031,0.255,-0.057,-0.502,97724.062,41.522
2.750744,-0.411,0.026,0.029,216.23,-4.602,11.541,0.251,-0.059,-0.517,,
2.764832,-0.425,-0.023,0.001,213.885,-4.751,10.377,0.252,-0.073,-0.532,,
2.779104,-0.419,0.026,-0.002,212.301,-4.804,9.1,0.251,-0.081,-0.547,,
2.797376,-0.411,0.012,0.004,210.7,-5.057,6.781,0.251,-0.093,-0.572,,
2.811648,-0.406,0.028,-0.042,212.284,-4.016,5.259,0.253,-0.1,-0.58,97686.328,41.53
2.825816,-0.413,0.082,-0.019,209.335,-3.798,4.471,0.249,-0.103,-0.598,,
2.84,-0.41,0.088,-0.057,203.105,-4.55,3.36,0.252,-0.102,-0.608,,
2.854288,-0.408,0.056,0.012,203.053,-4.786,4.602,0.253,-0.104,-0.611,,
2.868416,-0.374,0.116,-0.006,201.758,-5.617,5.661,0.251,-0.107,-0.625,,
2.88568,-0.372,0.113,-0.053,202.309,-5.871,6.02,0.251,-0.111,-0.644,97641.125,41.52
2.899864,-0.384,0.078,-0.025,204.164,-5.775,6.886,0.253,-0.11,-0.653,,
2.913952,-0.389,0.105,-0.017,202.449,-5.206,7.219,0.25,-0.116,-0.685,,
2.928216,-0.389,0.061,-0.027,202.921,-5.372,7.735,0.251,-0.116,-0.693,,
2.942312,-0.377,0.076,0.077,204.619,-5.241,8.286,0.251,-0.111,-0.714,,
2.956576,-0.367,0.057,0.029,203.656,-5.46,9.31,0.25,-0.115,-0.719,97628.5,41.517
2.970744,-0.359,0.059,-0.012,200.095,-6.055,9.529,0.25,-0.11,-0.727,,
2.989024,-0.365,0.045,-0.007,196.035,-6.816,9.555,0.248,-0.108,-0.744,,
3.00332,-0.348,0.064,-0.001,194.066,-7.455,8.846,0.247,-0.106,-0.775,,
3.017456,-0.351,0.04,-0.003,192.115,-6.93,8.505,0.246,-0.095,-0.793,,
3.0318,-0.347,0.052,0.007,190.365,-7.227,7.682,0.245,-0.093,-0.798,97578.172,41.522
3.045912,-0.365,0.07,0.001,186.104,-7.963,6.519,0.243,-0.084,-0.811,,
3.060064,-0.365,0.019,0.021,183.592,-7.901,5.644,0.246,-0.077,-0.821,,
3.074288,-0.348,0.104,-0.061,182.411,-7.613,4.707,0.241,-0.072,-0.824,,
3.091488,-0.354,0.135,-0.06,183.768,-8.006,4.253,0.239,-0.071,-0.843,,
3.105744,-0.375,0.048,-0.025,190.689,-5.827,4.314,0.236,-0.058,-0.846,97545.984,41.505
3.119824,-0.38,0.065,-0.059,195.711,-6.423,4.13,0.241,-0.044,-0.872,,
3.133928,-0.356,0.03,0.01,193.366,-5.556,4.751,0.236,-0.033,-0.879,,
3.148144,-0.351,0.151,0.014,191.459,-6.037,4.655,0.238,-0.024,-0.892,,
3.162232,-0.354,0.084,0.009,184.581,-6.746,4.769,0.235,-0.012,-0.896,,
3.1806,-0.332,0.036,0.02,181.667,-6.834,4.034,0.239,-0.007,-0.904,97525.344,41.51
3.195248,-0.337,-0.005,-0.007,180.836,-6.816,2.774,0.238,0.007,-0.9,,
3.2098,-0.324,0.034,-0.008,179.366,-7.569,1.286,0.236,0.021,-0.915,,
3.224576,-0.339,-0.022,-0.059,179.2,-6.528,-0.7,0.231,0.039,-0.94,,
3.239176,-0.33,0.026,-0.055,178.404,-5.416,-2.1,0.226,0.051,-0.942,,
3.253944,-0.312,-0.01,-0.057,181.589,-3.841,-3.159,0.231,0.062,-0.942,97493.516,41.512
3.268512,-0.321,0.086,0.012,181.493,-2.651,-4.48,0.229,0.076,-0.938,,
3.286176,-0.297,0.08,-0.062,176.566,-1.181,-4.637,0.227,0.088,-0.952,,
3.30092,-0.318,0.034,-0.04,176.584,-0.271,-3.491,0.23,0.109,-0.955,,
3.315448,-0.324,0.02,-0.029,174.335,0.254,-3.264,0.224,0.124,-0.962,,
3.330168,-0.296,0.099,-0.021,173.556,0.621,-2.249,0.229,0.141,-0.959,97455.984,41.498
3.344776,-0.318,0.073,-0.006,169.654,0.096,-0.333,0.225,0.154,-0.954,,
3.359288,-0.315,0.059,0.01,167.545,-0.49,0.437,0.226,0.163,-0.959,,
3.373976,-0.307,0.056,-0.034,166.758,-0.359,1.601,0.229,0.175,-0.965,,
3.392608,-0.302,0.003,0.018,164.894,-2.949,2.161,0.227,0.196,-0.958,,
3.407344,-0.317,0.013,0.051,162.041,-2.94,1.934,0.222,0.206,-0.962,97436.125,41.5
3.421936,-0.309,0.064,0.037,158.226,-3.447,1.173,0.221,0.22,-0.955,,
3.436464,-0.332,0.036,0.056,158.576,-5.714,1.269,0.22,0.228,-0.947,,
3.451104,-0.288,0.035,0.073,154.77,-7.604,1.225,0.221,0.241,-0.95,,
3.465664,-0.323,0.045,0.081,155.864,-10.92,1.837,0.221,0.249,-0.943,,
3.480312,-0.294,0.03,0.003,157.693,-13.291,1.855,0.219,0.261,-0.936,97395.781,41.496
3.497824,-0.277,0.037,0.059,157.185,-14.998,0.901,0.217,0.285,-0.939,,
3.512288,-0.287,-0.021,0.018,155.094,-16.144,1.645,0.218,0.291,-0.935,,
3.526976,-0.289,-0.009,-0.007,156.765,-16.844,0.954,0.213,0.299,-0.937,,
3.541488,-0.286,-0.042,-0.053,160.003,-17.019,-0.534,0.212,0.316,-0.933,,
3.556224,-0.272,-0.025,-0.1,156.258,-15.523,-3.5,0.209,0.322,-0.918,97367.422,41.492
3.570784,-0.299,-0.061,-0.132,154.717,-13.09,-6.003,0.206,0.33,-0.912,,
3.589496,-0.265,-0.03,-0.133,157.518,-7.035,-10.911,0.203,0.352,-0.914,,
3.604176,-0.269,-0.012,-0.168,165.471,-2.678,-12.504,0.205,0.358,-0.9,,
3.61872,-0.264,-0.003,-0.111,168.84,3.124,-14.149,0.203,0.376,-0.894,,
3.6334,-0.26,-0.042,-0.1,175.105,8.514,-14.49,0.201,0.383,-0.892,97340.781,41.485
3.648048,-0.259,0.045,-0.067,176.26,13.099,-13.807,0.2,0.395,-0.88,,
3.662632,-0.273,0.043,-0.072,176.654,17.062,-14.14,0.202,0.407,-0.863,,
3.677328,-0.276,0.032,-0.039,176.706,20.256,-11.76,0.201,0.418,-0.848,,
3.6948,-0.25,0.085,-0.067,174.274,22.794,-11.016,0.204,0.425,-0.842,,
3.709488,-0.27,0.012,-0.031,169.129,24.124,-9.354,0.201,0.434,-0.828,97308.062,41.483
3.72416,-0.255,0.007,0.012,166.635,23.651,-8.094,0.203,0.442,-0.809,,
3.73868,-0.256,0.02,-0.005,163.66,22.417,-6.807,0.201,0.452,-0.794,,
3.753344,-0.28,-0.005,0.048,160.011,20.562,-5.81,0.197,0.459,-0.779,,
3.767856,-0.256,-0.009,0.012,157.754,17.413,-5.224,0.199,0.467,-0.77,,
3.786624,-0.248,-0.031,0.053,156.52,13.842,-4.541,0.202,0.473,-0.747,97292.656,41.477
3.801168,-0.272,-0.037,0.045,155.689,10.561,-4.725,0.198,0.479,-0.737,,
3.815704,-0.283,-0.031,0.02,157.185,7.079,-5.276,0.2,0.476,-0.723,,
3.830392,-0.26,-0.019,0.061,152.469,5.136,-6.93,0.196,0.483,-0.705,,
3.844968,-0.252,-0.029,0.12,149.223,2.056,-9.126,0.196,0.482,-0.696,,
3.859656,-0.265,-0.064,0.074,146.265,-0.752,-11.926,0.193,0.485,-0.683,97261.437,41.483
3.874096,-0.259,0.008,0.072,146.151,-3.955,-13.825,0.195,0.489,-0.671,,
3.891576,-0.261,-0.067,0.044,147.542,-6.965,-15.741,0.195,0.491,-0.659,,
3.906168,-0.261,-0.064,0.006,153.51,-9.179,-16.993,0.194,0.491,-0.646,,
3.92068,-0.262,0.004,-0.044,152.687,-9.599,-19.075,0.191,0.494,-0.641,,
3.935368,-0.266,-0.01,-0.042,150.929,-8.837,-20.632,0.189,0.499,-0.63,97242.656,41.478
3.949936,-0.249,0.003,-0.001,150.518,-6.878,-20.746,0.185,0.496,-0.625,,
3.964336,-0.234,0.027,-0.037,150.325,-5.18,-20.388,0.184,0.491,-0.601,,
3.97908,-0.248,0.072,-0.081,149.45,-3.973,-19.6,0.188,0.491,-0.598,,
3.997648,-0.233,0.064,-0.098,148.697,-1.173,-18.279,0.185,0.493,-0.592,,
4.012216,-0.242,0.048,-0.061,147.901,1.006,-16.564,0.185,0.488,-0.574,97231.781,41.472
4.026776,-0.242,0.081,-0.072,148.251,3.579,-14.472,0.177,0.487,-0.562,,
4.041248,-0.232,0.115,-0.108,147.298,5.241,-12.845,0.18,0.483,-0.555,,
4.055944,-0.22,0.083,-0.086,149.66,6.685,-10.824,0.177,0.477,-0.535,,
4.070488,-0.232,0.065,-0.076,150.815,8.811,-8.19,0.175,0.479,-0.529,,
4.088128,-0.242,0.06,-0.118,151.375,10.911,-4.681,0.171,0.472,-0.523,97200.375,41.476
4.102608,-0.215,0.101,-0.088,150.15,12.171,-2.257,0.171,0.458,-0.495,,
4.117112,-0.238,0.045,-0.058,149.564,13.676,2.188,0.173,0.457,-0.485,,
4.131808,-0.23,0.032,-0.046,149.231,14.788,1.899,0.172,0.449,-0.471,,
4.14632,-0.244,0.012,-0.018,149.643,14.726,4.095,0.176,0.442,-0.46,,
4.16104,-0.22,0.026,-0.002,147.884,14.63,5.67,0.167,0.436,-0.458,97183.187,41.474
4.175456,-0.226,0.029,-0.013,144.288,13.589,6.37,0.173,0.428,-0.439,,
4.193896,-0.23,0.015,-0.001,138.652,11.961,6.965,0.17,0.409,-0.433,,
4.208448,-0.214,0.027,0.004,136.325,10.806,8.006,0.168,0.401,-0.424,,
4.222984,-0.216,0.058,-0.035,133.306,9.415,8.243,0.169,0.393,-0.41,,
4.237656,-0.208,0.034,-0.025,129.999,8.514,7.831,0.166,0.381,-0.396,97157.656,41.472
4.264344,-0.208,0.009,-0.039,123.559,7.193,7.884,0.172,0.367,-0.394,,
4.278912,-0.209,0.081,0.003,121.065,6.335,8.085,0.175,0.361,-0.388,,
4.293816,-0.207,0.004,-0.004,118.816,4.952,8.96,0.174,0.347,-0.378,,
4.311376,-0.213,0.012,-0.033,120.444,2.852,9.712,0.172,0.332,-0.368,,
4.326128,-0.189,0.012,-0.034,120.566,1.558,10.824,0.172,0.317,-0.355,97136.344,41.473
4.340736,-0.193,-0.02,-0.091,121.301,1.785,11.533,0.173,0.311,-0.365,,
4.355304,-0.2,0.011,-0.029,121.371,4.253,10.727,0.176,0.308,-0.364,,
4.370048,-0.194,0.014,-0.022,120.348,5.574,10.01,0.176,0.299,-0.351,,
4.384616,-0.195,0.037,-0.044,117.924,6.029,9.774,0.179,0.287,-0.355,,
4.399392,-0.187,0.012,-0.011,116.83,6.676,9.275,0.173,0.265,-0.349,97114.297,41.476
4.418144,-0.203,0.043,-0.026,114.564,7.604,8.557,0.178,0.26,-0.348,,
4.432752,-0.19,0.029,-0.007,112.298,7.77,7.621,0.174,0.248,-0.34,,
4.447528,-0.198,0.014,-0.034,109.095,7.227,8.523,0.179,0.241,-0.341,,
4.4622,-0.182,-0.001,-0.065,110.04,6.125,8.514,0.174,0.231,-0.326,,
4.477,-0.173,-0.014,-0.075,114.415,5.084,8.592,0.175,0.21,-0.328,97095.062,41.47
4.491648,-0.19,0.001,-0.061,116.839,6.186,7.481,0.175,0.198,-0.334,,
4.509224,-0.19,0.012,-0.042,115.526,8.575,6.213,0.176,0.189,-0.336,,
4.524,-0.173,-0.004,-0.06,114.529,10.71,5.486,0.175,0.183,-0.333,,
4.53856,-0.174,0.014,-0.064,113.059,10.999,5.495,0.177,0.173,-0.328,,
4.55328,-0.168,0.042,-0.019,111.501,12.259,5.469,0.177,0.164,-0.326,97089.844,41.468
4.567888,-0.181,0.002,-0.075,110.32,13.02,5.32,0.169,0.146,-0.328,,
4.582464,-0.193,0.013,-0.076,109.76,12.836,5.661,0.171,0.138,-0.335,,
4.597184,-0.165,0.006,-0.075,111.466,12.784,6.457,0.17,0.129,-0.33,,
4.615904,-0.17,0.045,-0.055,112.997,13.265,7.472,0.172,0.112,-0.335,,
4.630664,-0.168,0.056,-0.057,112.236,14.07,8.155,0.171,0.103,-0.328,97071.687,41.467
4.645344,-0.163,0.061,-0.043,111.3,13.807,9.354,0.168,0.09,-0.335,,
4.65996,-0.188,0.047,-0.096,111.668,13.326,10.797,0.167,0.081,-0.338,,
4.674744,-0.108,0.031,-0.043,109.795,13.011,11.865,0.166,0.073,-0.341,,
4.689344,-0.707,0.031,0.138,107.301,12.591,12.547,0.167,0.06,-0.336,,
4.704096,23.983,-0.491,0.058,103.67,-20.493,-10.929,0.168,0.053,-0.341,97051.469,41.462
4.72176,-0.414,-1.499,-0.095,84.42,-7.7,5.25,0.165,0.04,-0.352,,
4.736328,-1.142,-0.316,-0.69,53.655,45.194,-21.744,0.168,0.036,-0.345,,
4.751056,-0.787,0.125,-1.142,63.604,64.444,-17.273,0.168,0.037,-0.341,,
4.765632,-0.979,0.108,-1.195,55.711,51.572,-13.134,0.161,0.031,-0.34,,
4.780416,-1.32,0.158,-1.047,49.315,39.708,-29.829,0.163,0.023,-0.345,96972.047,41.453
4.795032,-1.828,0.253,-0.925,58.38,43.531,-53.961,0.16,0.026,-0.353,,
4.813784,-2.457,0.6,0.29,63.787,31.334,-72.389,0.161,0.023,-0.35,,
4.828544,-2.529,0.454,0.283,59.316,106.934,-117.46,0.157,0.024,-0.35,,
4.843208,-3.186,0.897,0.324,50.934,171.325,-144.148,0.16,0.028,-0.34,,
4.857976,-4.09,0.991,0.123,49.761,130.716,-160.387,0.146,0.035,-0.329,96952.812,41.459
4.872616,-4.383,1.364,-0.542,53.856,64.269,-193.34,0.143,0.042,-0.334,,
4.887248,-4.986,1.451,-0.365,55.536,5.084,-145.337,0.146,0.053,-0.324,,
4.902064,-4.979,1.958,-0.023,54.792,-34.466,-57.269,0.146,0.055,-0.32,,
4.919656,-5.48,1.753,0.358,52.386,-69.746,59.43,0.163,0.055,-0.328,,
4.934208,-5.892,1.688,-0.415,49.682,-112.709,110.653,0.165,0.045,-0.339,96903.984,41.46
4.948816,-5.972,1.573,-0.191,49.035,-152.696,193.952,0.173,0.037,-0.352,,
4.96336,-6.079,1.04,-0.23,41.641,-164.185,271.723,0.176,0.02,-0.377,,
4.97808,-6.343,0.306,-0.841,38.255,-158.331,286.668,0.183,-0.009,-0.371,,
4.992616,-6.916,-0.329,-0.51,41.283,-156.958,233.389,0.182,-0.055,-0.41,,
5.00736,-6.436,-0.235,-0.372,41.895,-141.706,150.666,0.181,-0.069,-0.417,96953.875,41.452
5.026096,-8.665,-0.897,-0.957,29.566,-76.685,-43.33,0.182,-0.079,-0.425,,
5.040704,-11.337,-0.092,-0.083,12.399,78.19,-165.55,0.187,-0.074,-0.432,,
5.0554,-14.008,1.438,-0.177,-5.714,226.599,-203.201,0.197,-0.073,-0.416,,
5.069952,-7.678,0.054,0.755,-14.455,286.676,-54.924,0.201,-0.065,-0.403,,
5.08464,-6.296,0.143,0.586,-17.798,249.27,-65.415,0.174,-0.05,-0.376,96955.547,41.443
5.099344,-5.191,0.19,0.624,-19.976,125.79,-124.863,0.162,-0.044,-0.358,,
5.1168,-5.333,0.294,0.414,-15.82,-63.28,-168.455,0.159,-0.033,-0.351,,
5.131496,-7.951,1.954,-0.081,-13.554,-242.314,29.645,0.166,-0.022,-0.35,,
5.14608,-4.968,0.127,-1.8,-17.202,-286.72,247.187,0.183,-0.019,-0.363,,
5.160832,-4.587,0.333,-1.66,-12.924,-286.72,253.592,0.207,-0.051,-0.416,96958.375,41.445
5.175376,-3.883,-0.187,-1.244,-16.826,-255.526,188.143,0.218,-0.065,-0.435,,
5.18992,-4.022,-0.417,-0.311,-28.368,-207.025,59.544,0.216,-0.073,-0.454,,
5.208848,-3.827,-0.278,-0.452,-40.11,-103.784,-121.66,0.23,-0.081,-0.468,,
5.223432,-2.516,-0.44,-1.081,-41.834,32.287,-235.34,0.244,-0.067,-0.47,,
5.238024,-2.081,0.057,-0.261,-41.772,104.659,-286.72,0.249,-0.056,-0.468,96956.094,41.44
5.252592,-2.528,0.262,-0.789,-46.935,111.291,-286.72,0.26,0.009,-0.454,,
5.267224,-1.987,-0.171,-0.311,-53.515,95.069,-286.72,0.268,0.045,-0.438,,
5.281952,-0.996,0.337,-0.222,-51.52,61.897,-286.72,0.271,0.083,-0.423,,
5.29652,-1.167,0.746,-0.389,-57.951,56.184,-286.72,0.271,0.131,-0.413,,
5.314224,-0.146,0.3,-0.519,-74.121,32.498,-286.72,0.27,0.183,-0.416,96934.141,41.438
5.328792,-0.117,0.343,-0.386,-81.664,4.025,-286.72,0.241,0.271,-0.421,,
5.343328,-0.108,0.318,-0.27,-84.359,-19.574,-286.72,0.23,0.32,-0.424,,
5.358016,-0.207,0.295,-0.289,-84.577,-36.514,-286.72,0.206,0.366,-0.424,,
5.372608,-0.121,0.572,-0.234,-86.599,-35.586,-286.72,0.183,0.409,-0.431,,
5.387168,0.166,0.151,0.165,-104.842,-17.587,-286.72,0.15,0.448,-0.445,96941.75,41.429
5.40592,-0.056,0.083,-0.264,-104.274,-22.776,-286.72,0.121,0.477,-0.458,,
5.420448,-0.039,0.154,-0.337,-101.246,-26.88,-286.72,0.056,0.532,-0.478,,
5.435024,-0.032,0.17,-0.332,-99.321,-31.386,-286.72,0.027,0.555,-0.497,,
5.449552,0.026,0.086,-0.226,-87.194,-18.83,-286.72,-0.011,0.58,-0.502,,
5.464256,-0.004,0.06,-0.146,-88.585,-18.288,-286.72,-0.045,0.584,-0.509,96951.656,41.424
5.478888,0.003,-19.418,-15.772,-282.931,-286.72,-286.72,-0.083,0.599,-0.518,,
5.496224,0.122,-0.074,-2.666,-286.72,-286.72,-286.72,-0.211,0.621,-0.57,,
5.510928,0.036,-0.693,7.554,-286.72,-286.72,-286.72,-0.489,0.468,-0.516,,
5.52532,-2.255,-0.6,3.85,-286.72,-286.72,-286.72,-0.519,0.36,-0.419,,
5.540144,-0.814,-2.032,6.994,-286.72,-286.72,-286.72,-0.455,0.289,-0.333,96927.937,41.425
5.554576,-0.254,0.07,3.14,-286.72,-286.72,-286.72,-0.342,0.257,-0.256,,
5.569088,-0.933,-0.537,2.965,-286.72,-286.72,-286.72,-0.2,0.273,-0.242,,
5.583784,-0.724,-0.306,2.665,-286.72,-286.72,-286.72,-0.061,0.324,-0.271,,
5.59648,-1.064,-0.157,0.797,-286.72,-286.72,-286.72,0.063,0.377,-0.352,,
5.611176,-0.991,-0.128,0.197,-286.72,-286.72,-39.165,0.15,0.425,-0.461,96941.969,41.418
5.62572,-0.981,-0.18,0.577,-286.72,-286.72,203.035,0.207,0.448,-0.81,,
5.640112,-0.793,0.006,0.642,-286.72,-286.72,286.676,0.161,0.401,-0.962,,
5.654808,-0.564,0.152,0.645,-286.72,-286.72,286.676,0.059,0.333,-1.074,,
5.669256,-0.4,0.264,0.717,-286.72,-286.72,286.676,-0.079,0.254,-1.128,,
5.687968,-0.215,0.349,0.78,-286.72,-286.72,286.676,-0.229,0.195,-1.125,96924.484,41.42
5.702544,-0.193,0.447,0.76,-286.72,-286.72,286.676,-0.366,0.165,-1.06,,
5.716968,-0.226,0.259,0.6,-286.72,-286.72,286.676,-0.545,0.25,-0.92,,
5.731712,0.152,0.114,0.553,-286.72,-286.72,286.676,-0.561,0.331,-0.868,,
5.746264,0.684,-0.027,0.315,-286.72,-286.562,286.676,-0.532,0.427,-0.846,,
5.76096,-3.001,-3.042,5.049,-286.72,-71.225,286.676,-0.469,0.491,-0.87,96913.187,41.412
5.778336,1.475,0.514,3.823,-286.72,286.676,286.676,-0.38,0.525,-0.936,,
5.792912,0.735,0.217,0.899,-286.72,286.676,286.676,-0.251,0.523,-0.986,,
5.807464,-0.099,0.193,-1.555,-286.72,286.676,286.676,0.025,0.396,-1.024,,
5.822,-0.878,-7.818,-8.553,-286.72,286.676,-286.72,0.096,0.335,-1.014,,
5.836552,-0.281,-6.683,7.946,-286.72,245.114,-286.72,0.137,0.307,-1.017,96932.75,41.414
5.851136,3.295,3.115,23.983,-286.72,-112.061,-286.72,0.126,0.304,-1.007,,
5.869712,0.83,-2.115,9.58,-286.72,274.234,-286.72,0.13,0.286,-1.023,,
5.8844,1.026,0.447,9.734,-286.72,58.966,-286.72,0.146,0.251,-1.025,,
5.898912,0.294,0.776,4.716,-286.72,221.261,-286.72,0.164,0.252,-1.011,,
5.913656,-0.413,1.318,1.7,-286.72,286.676,-286.72,0.189,0.252,-0.986,96944.062,41.411
5.928216,-1.023,1.108,1.219,-286.72,286.676,-286.72,0.205,0.263,-0.94,,
5.942624,-1.1,1.532,0.324,-286.72,286.676,-286.72,0.233,0.289,-0.892,,
5.95732,-0.88,0.938,0.6,-286.72,286.676,-286.72,0.251,0.322,-0.851,,
5.97468,-0.725,0.597,0.143,-286.72,286.676,-286.72,0.245,0.41,-0.746,,
5.989232,-1.742,0.423,0.48,-286.72,286.676,-286.72,0.205,0.48,-0.692,96945.031,41.41
6.003656,-2.797,0.581,-0.348,-286.72,286.676,-286.72,0.125,0.556,-0.653,,
6.018056,-3.864,1.05,0.103,-286.72,286.676,-286.72,0,0.621,-0.68,,
6.032688,-3.732,1.657,-0.164,-286.72,286.676,-286.72,-0.137,0.639,-0.756,,
6.047256,-3.601,2.18,0.212,-286.72,286.676,-286.72,-0.269,0.595,-0.878,,
6.078088,-1.426,1.801,-0.407,-286.72,237.904,-286.72,-0.36,0.157,-1.087,96932.891,41.397
6.092832,-0.716,1.072,-0.926,-286.72,192.92,-286.72,-0.311,-0.017,-1.059,,
6.107456,-0.477,0.343,-1.239,-286.72,284.909,-286.72,-0.242,-0.142,-0.973,,
6.122248,-0.865,0.071,-1.139,-286.72,286.676,-286.72,-0.155,-0.231,-0.849,,
6.136872,-1.416,0.085,-1.081,-286.72,286.676,-286.72,-0.055,-0.271,-0.724,,
6.151704,-1.776,-0.004,-0.862,-286.72,286.676,-286.72,0.046,-0.253,-0.598,96926.141,41.399
6.1692,-2.007,-0.007,-0.497,-286.72,286.676,-286.72,0.19,-0.041,-0.391,,
6.183792,-1.962,0.024,-0.272,-286.72,88.121,-286.72,0.206,0.131,-0.353,,
6.19852,-1.824,0.001,-0.175,-286.72,-173.477,-286.72,0.186,0.311,-0.374,,
6.213136,-1.529,-0.084,-0.074,-286.72,-286.72,-286.72,0.135,0.471,-0.461,,
6.227872,-1.436,-0.295,-0.124,-286.72,-286.72,-286.72,0.05,0.58,-0.578,96938.859,41.397
6.24248,-1.261,-0.357,-0.251,-286.72,-286.72,-286.72,-0.054,0.638,-0.704,,
6.257048,-1.02,-0.552,-0.067,-286.72,-286.72,-286.72,-0.16,0.628,-0.815,,
6.275896,-0.646,-0.619,0.072,-286.72,-286.72,-286.72,-0.37,0.501,-0.95,,
6.290448,-0.461,-0.758,0.148,-286.72,-286.72,-286.72,-0.452,0.401,-0.954,,
6.305192,-0.405,-0.773,0.346,-286.72,-286.72,-286.72,-0.521,0.308,-0.928,96941.141,41.391
6.319808,-0.544,-0.665,0.504,-286.72,-286.72,-286.72,-0.568,0.218,-0.865,,
6.33444,-0.563,-0.37,0.474,-286.72,-286.72,-283.098,-0.595,0.144,-0.763,,
6.349168,-0.479,-0.226,0.457,-286.72,-286.72,-166.294,-0.589,0.085,-0.562,,
6.37496,-0.403,-0.162,0.302,-286.72,-286.72,65.012,-0.487,0.156,-0.359,,
6.390144,-0.315,-0.086,0.229,-286.72,-286.72,188.151,-0.407,0.222,-0.294,96965.703,41.394
6.405208,-0.228,-0.076,0.128,-286.72,-286.72,286.676,-0.322,0.29,-0.266,,
6.42028,-0.124,-0.098,0.15,-286.72,-286.72,286.676,-0.223,0.362,-0.268,,
6.43548,-0.204,-0.551,-0.056,-286.72,-286.72,286.676,-0.127,0.429,-0.312,,
6.450528,0.311,-0.873,0.198,-286.72,-286.72,286.676,-0.032,0.481,-0.361,,
6.469968,0.256,-1.181,0.215,-286.72,-286.72,286.676,0.122,0.509,-0.519,96951.266,41.388
6.484152,0.182,-1.056,0.265,-286.72,-286.72,286.676,0.173,0.488,-0.583,,
6.498288,0.125,-0.755,0.015,-270.06,-286.72,216.186,0.21,0.468,-0.65,,
6.512584,0.011,-0.654,-0.043,-194.906,-286.72,141.33,0.227,0.451,-0.712,,
6.526776,0.037,-0.908,0.247,-87.36,-286.72,55.16,0.232,0.441,-0.762,,
6.541072,-0.247,-1.098,0.518,48.694,-286.72,-65.879,0.223,0.428,-0.805,96957.562,41.384
6.558208,-0.397,-0.877,0.319,199.447,-286.72,-226.721,0.166,0.447,-0.899,,
6.572312,-0.149,-0.885,0.145,257.88,-286.72,-286.72,0.103,0.482,-0.921,,
6.586624,-0.153,-0.948,0.249,286.676,-286.72,-286.72,0.038,0.52,-0.935,,
6.600712,-0.367,-1.115,0.099,286.676,-286.72,-286.72,-0.051,0.557,-0.921,,
6.614992,-0.695,-1.127,-0.1,286.676,-286.72,-286.72,-0.152,0.585,-0.9,96948.453,41.386
6.62912,-0.878,-0.919,-0.244,286.676,-286.72,-286.72,-0.262,0.603,-0.843,,
6.643256,-0.955,-0.713,-0.491,286.676,-286.72,-286.72,-0.371,0.584,-0.768,,
6.661696,-0.946,-0.142,-0.384,286.676,-111.685,-286.72,-0.554,0.427,-0.67,,
6.67584,-1.027,0.463,-0.52,286.676,89.714,-286.72,-0.6,0.305,-0.655,,
6.690128,-1.122,0.84,-0.625,286.676,276.85,-286.72,-0.611,0.171,-0.66,96980.922,41.387
6.704328,-1.2,1.203,-0.313,286.676,286.676,-286.72,-0.592,0.054,-0.701,,
6.71848,-0.868,1.702,-0.095,286.484,286.676,-286.72,-0.544,-0.035,-0.771,,
6.732776,-0.605,1.903,0.165,118.23,286.676,-286.72,-0.483,-0.098,-0.819,,
6.74984,-0.529,1.847,0.176,-132.379,286.676,-183.452,-0.375,-0.159,-0.882,,
6.764144,-0.459,1.881,0.268,-286.72,286.676,84.857,-0.341,-0.173,-0.88,96993.641,41.385
6.778312,-0.473,1.765,0.116,-286.72,286.676,286.676,-0.336,-0.186,-0.863,,
6.792408,-0.748,1.597,0.131,-286.72,286.676,286.676,-0.351,-0.186,-0.823,,
6.806616,-0.943,1.308,0.001,-286.72,286.676,286.676,-0.382,-0.183,-0.777,,
6.820736,-1.31,0.869,0.046,-286.72,286.676,286.676,-0.435,-0.152,-0.747,,
6.839232,-1.853,0.305,0.508,-286.72,286.676,286.676,-0.494,-0.104,-0.734,97001.469,41.388
6.8534,-2.031,0.061,0.914,-286.72,286.676,286.676,-0.56,0.009,-0.798,,
6.86752,-2.1,0.065,1.4,-286.72,286.676,286.676,-0.556,0.029,-0.844,,
6.881832,-1.961,0.338,1.67,-286.72,286.676,257.434,-0.533,0.025,-0.887,,
6.896024,-1.738,0.704,1.728,-286.72,286.676,148.041,-0.5,-0.012,-0.904,,
6.910336,-1.413,1.142,1.598,-286.72,286.676,120.26,-0.464,-0.066,-0.887,96992.328,41.39
6.924448,-1.069,1.433,1.189,-286.72,286.676,193.883,-0.441,-0.107,-0.853,,
6.94152,-0.936,1.375,0.635,-286.72,286.676,286.676,-0.434,-0.139,-0.794,,
6.955856,-0.966,1.122,0.408,-286.72,286.676,286.676,-0.452,-0.142,-0.727,,
6.969888,-1.108,0.818,0.314,-286.72,286.676,286.676,-0.515,-0.066,-0.652,,
6.984168,-1.321,0.583,0.355,-286.72,286.676,286.676,-0.555,0,-0.661,96998.422,41.385
6.998248,-1.504,0.367,0.447,-286.72,286.676,286.676,-0.581,0.056,-0.705,,
7.0124,-1.658,0.219,0.629,-286.72,286.676,286.58,-0.592,0.084,-0.762,,
7.030656,-1.738,0.276,0.846,-286.72,286.676,91.035,-0.582,0.087,-0.834,,
7.044728,-1.711,0.384,0.994,-286.72,286.676,-43.969,-0.549,0.063,-0.881,,
7.058984,-1.527,0.567,0.949,-286.72,286.676,-128.905,-0.509,0.012,-0.908,97014.297,41.381
7.073208,-1.22,0.699,0.831,-286.72,286.676,-156.266,-0.416,-0.12,-0.868,,
7.08728,-0.91,0.701,0.644,-286.72,286.676,-130.27,-0.378,-0.173,-0.813,,
7.101392,-0.649,0.579,0.51,-286.72,286.676,-88.751,-0.36,-0.208,-0.74,,
7.11848,-0.411,0.381,0.347,-286.72,286.676,-53.13,-0.351,-0.221,-0.647,,
7.132584,-0.306,0.274,0.295,-286.72,286.676,-50.461,-0.344,-0.206,-0.562,97029.953,41.376
7.146648,-0.308,0.228,0.268,-286.72,286.676,-66.238,-0.353,-0.173,-0.48,,
7.160704,-0.315,0.193,0.245,-286.72,286.676,-91.84,-0.37,-0.125,-0.415,,
7.174912,-0.37,0.201,0.19,-286.72,286.676,-119.656,-0.388,-0.062,-0.369,,
7.188952,-0.392,0.176,0.139,-286.72,286.676,-150.666,-0.437,0.069,-0.35,,
7.20328,-0.375,0.171,0.149,-286.72,286.676,-187.932,-0.463,0.134,-0.358,97033.422,41.381
7.221512,-0.302,0.116,0.195,-286.72,286.676,-254.538,-0.488,0.193,-0.375,,
7.235664,-0.252,0.095,0.234,-286.72,286.676,-286.72,-0.516,0.237,-0.415,,
7.249872,-0.285,0.129,0.234,-286.72,255.553,-286.72,-0.541,0.267,-0.45,,
7.263872,-0.326,0.143,0.217,-286.72,191.135,-286.72,-0.561,0.282,-0.49,,
7.278096,-0.34,0.152,0.163,-286.72,111.405,-286.72,-0.577,0.282,-0.528,97029.281,41.372
7.29228,-0.348,0.147,0.107,-286.72,33.792,-286.72,-0.592,0.259,-0.569,,
7.309296,-0.335,0.105,0.043,-286.72,-63.088,-286.72,-0.601,0.236,-0.574,,
7.323424,-0.342,0.046,-0.025,-286.72,-137.646,-286.72,-0.603,0.216,-0.572,,
7.337472,-0.299,-0.078,-0.063,-286.72,-203.534,-286.72,-0.598,0.193,-0.564,,
7.35156,-0.276,-0.08,-0.109,-286.72,-263.987,-286.72,-0.588,0.179,-0.535,97024.297,41.371
7.36572,-0.261,-0.157,-0.116,-286.72,-286.72,-286.72,-0.579,0.182,-0.503,,
7.379672,-0.193,-0.238,-0.127,-286.72,-286.72,-258.081,-0.563,0.186,-0.463,,
7.398,-0.129,-0.232,-0.05,-286.72,-286.72,-198.791,-0.527,0.236,-0.415,,
7.412064,-0.168,-0.246,-0.059,-286.72,-286.72,-146.738,-0.507,0.275,-0.393,,
7.426168,-0.212,-0.411,-0.097,-286.72,-286.72,-108.43,-0.492,0.315,-0.38,97026.016,41.38
7.44028,-0.29,-0.609,-0.051,-286.72,-286.72,-103.075,-0.462,0.364,-0.375,,
7.454216,-0.394,-0.655,0.003,-286.72,-286.72,-122.789,-0.444,0.413,-0.393,,
7.468456,-0.423,-0.725,0.045,-286.72,-286.72,-150.036,-0.43,0.451,-0.411,,
7.485328,-0.327,-0.644,0.094,-286.72,-286.72,-187.696,-0.417,0.481,-0.438,,
7.499656,-0.362,-0.773,0.097,-286.72,-286.72,-218.549,-0.399,0.521,-0.47,97020.172,41.375
7.513608,-0.411,-0.874,0.141,-286.72,-286.72,-280.254,-0.398,0.534,-0.486,,
7.52764,-0.587,-0.958,0.121,-286.72,-286.72,-286.72,-0.403,0.535,-0.487,,
7.541728,-0.662,-0.934,0.152,-258.869,-286.72,-286.72,-0.409,0.524,-0.48,,
7.555776,-0.746,-0.942,0.053,-170.363,-286.72,-286.72,-0.424,0.509,-0.471,,
7.569912,-0.875,-0.808,-0.051,-101.211,-286.72,-286.72,-0.427,0.484,-0.453,97033.437,41.369
7.588032,-1.048,-0.617,-0.156,-35.228,-286.72,-286.72,-0.44,0.454,-0.425,,
7.602104,-1.145,-0.469,-0.294,-5.845,-286.72,-286.72,-0.447,0.359,-0.367,,
7.6162,-1.228,-0.389,-0.419,5.582,-286.72,-286.72,-0.436,0.313,-0.333,,
7.63032,-1.249,-0.188,-0.6,3.378,-286.72,-286.72,-0.421,0.262,-0.317,,
7.644632,-1.209,0.121,-0.762,-15.934,-239.829,-286.72,-0.403,0.213,-0.293,97034.625,41.369
7.65872,-1.161,0.381,-0.855,-44.634,-96.311,-286.72,-0.377,0.165,-0.279,,
7.6756,-1.132,0.52,-0.939,-77.429,80.666,-286.72,-0.359,0.134,-0.283,,
7.689856,-1.151,0.785,-0.867,-105.114,223.291,-286.72,-0.346,0.1,-0.281,,
7.703776,-1.173,0.94,-0.804,-137.077,286.676,-286.72,-0.349,0.081,-0.291,,
7.717968,-1.337,0.988,-0.669,-179.148,286.676,-286.72,-0.358,0.067,-0.3,97063.516,41.37
7.731928,-1.435,0.987,-0.541,-227.43,286.676,-286.72,-0.41,0.059,-0.346,,
7.746,-1.508,0.975,-0.438,-283.281,286.676,-190.47,-0.445,0.061,-0.378,,
7.764128,-1.649,0.924,-0.222,-286.72,286.676,-72.905,-0.489,0.071,-0.416,,
7.778064,-1.697,0.924,-0.032,-286.72,286.676,1.321,-0.524,0.09,-0.467,,
7.792272,-1.73,0.9,0.005,-286.72,286.676,71.706,-0.561,0.111,-0.523,97070.375,41.375
7.806432,-1.749,0.826,0.223,-286.72,286.676,124.058,-0.586,0.13,-0.569,,
7.82048,-1.752,0.778,0.396,-286.72,286.676,162.785,-0.604,0.158,-0.628,,
7.846624,-1.556,0.673,0.514,-286.72,286.676,215.425,-0.609,0.191,-0.752,,
7.863848,-1.36,0.664,0.478,-286.72,286.676,257.897,-0.598,0.204,-0.833,,
7.87824,-1.193,0.636,0.433,-286.72,286.676,286.676,-0.581,0.194,-0.868,97064.297,41.368
7.892368,-1.079,0.523,0.454,-286.72,286.676,286.676,-0.563,0.183,-0.904,,
7.906496,-1.003,0.416,0.465,-286.72,286.676,286.676,-0.547,0.164,-0.935,,
7.92076,-0.899,0.283,0.468,-286.72,286.676,286.676,-0.531,0.133,-0.951,,
7.934856,-0.823,0.206,0.501,-286.72,286.676,286.676,-0.506,0.098,-0.957,,
7.949136,-0.771,0.157,0.55,-286.72,286.676,276.019,-0.481,0.054,-0.964,97076.469,41.369
7.967456,-0.729,0.13,0.658,-286.72,286.676,162.496,-0.437,-0.051,-0.944,,
7.981584,-0.716,0.143,0.698,-286.72,286.676,51.354,-0.407,-0.107,-0.902,,
7.995904,-0.702,0.209,0.694,-286.72,286.676,-56.49,-0.386,-0.165,-0.838,,
8.01004,-0.704,0.32,0.652,-286.72,286.676,-157.631,-0.365,-0.2,-0.76,,
8.024352,-0.657,0.43,0.545,-286.72,286.676,-240.24,-0.345,-0.221,-0.674,97071.687,41.369
8.0386,-0.657,0.526,0.413,-286.72,286.676,-286.624,-0.326,-0.224,-0.572,,
8.055712,-0.618,0.58,0.228,-286.72,271.329,-286.72,-0.309,-0.144,-0.389,,
8.069968,-0.583,0.495,0.172,-286.72,217.411,-286.694,-0.305,-0.059,-0.319,,
8.084096,-0.552,0.419,0.151,-286.72,179.497,-267.085,-0.31,0.038,-0.274,,
8.098392,-0.501,0.378,0.077,-286.72,166.749,-254.091,-0.321,0.139,-0.258,97065.906,41.37
8.112528,-0.455,0.279,0,-286.72,163.074,-249.856,-0.339,0.24,-0.269,,
8.126616,-0.477,0.158,-0.083,-286.72,163.424,-252.796,-0.362,0.336,-0.319,,
8.145072,-0.45,0.015,-0.056,-286.72,167.247,-266.682,-0.418,0.476,-0.452,,
8.159264,-0.442,-0.086,-0.045,-286.72,168.201,-286.624,-0.448,0.516,-0.541,,
8.173568,-0.531,-0.171,0.007,-286.72,154.446,-286.72,-0.474,0.529,-0.625,97075.375,41.364
8.18772,-0.571,-0.228,0.085,-286.72,122.526,-286.72,-0.501,0.506,-0.723,,
8.201864,-0.621,-0.253,0.199,-286.72,74.76,-286.72,-0.52,0.46,-0.787,,
8.216176,-0.61,-0.238,0.257,-286.72,0.306,-286.72,-0.54,0.396,-0.85,,
8.230304,-0.628,-0.221,0.287,-286.72,-75.863,-286.72,-0.552,0.317,-0.882,,
8.247592,-0.73,-0.206,0.277,-286.72,-165.9,-286.72,-0.56,0.228,-0.862,97088.969,41.355
8.26172,-0.799,-0.171,0.257,-286.72,-227.929,-286.72,-0.562,0.059,-0.826,,
8.275864,-0.845,-0.113,0.206,-286.72,-277.454,-286.72,-0.557,-0.004,-0.765,,
8.29012,-0.884,-0.056,0.15,-286.72,-286.72,-286.72,-0.543,-0.043,-0.693,,
8.304232,-0.902,-0.054,0.088,-286.72,-286.72,-266.508,-0.521,-0.072,-0.595,,
8.31848,-0.937,-0.081,0.09,-286.72,-286.72,-227.902,-0.499,-0.067,-0.513,97091.922,41.363
8.336808,-0.871,-0.078,-0.009,-286.72,-286.72,-199.369,-0.469,-0.047,-0.447,,
8.350928,-0.839,-0.059,-0.076,-286.72,-283.876,-186.375,-0.411,0.056,-0.327,,
8.365232,-0.838,-0.085,-0.14,-286.72,-256.856,-182,-0.382,0.117,-0.294,,
8.379392,-0.878,-0.144,-0.179,-286.72,-233.345,-192.229,-0.362,0.195,-0.276,,
8.393712,-0.933,-0.17,-0.168,-286.72,-225.111,-214.2,-0.347,0.272,-0.275,97096.562,41.357
8.407944,-0.983,-0.214,-0.206,-286.72,-230.913,-244.37,-0.323,0.345,-0.289,,
8.425088,-1.071,-0.259,-0.305,-286.72,-249.2,-279.939,-0.322,0.412,-0.321,,
8.439312,-1.131,-0.33,-0.331,-286.72,-264.53,-286.72,-0.317,0.47,-0.35,,
8.453424,-1.175,-0.474,-0.381,-286.72,-279.598,-286.72,-0.319,0.514,-0.405,,
8.46776,-1.251,-0.632,-0.349,-286.72,-286.711,-286.72,-0.336,0.57,-0.512,97092.641,41.361
8.481904,-1.327,-0.667,-0.35,-286.72,-286.72,-286.72,-0.353,0.582,-0.566,,
8.496048,-1.388,-0.628,-0.366,-286.72,-286.72,-286.72,-0.386,0.589,-0.611,,
8.514496,-1.392,-0.523,-0.419,-286.72,-286.72,-286.72,-0.406,0.574,-0.65,,
8.5286,-1.381,-0.553,-0.419,-286.72,-272.72,-286.72,-0.441,0.56,-0.691,,
8.542904,-1.37,-0.539,-0.433,-286.72,-235.76,-286.72,-0.473,0.533,-0.723,97096.562,41.357
8.557,-1.388,-0.516,-0.4,-286.72,-202.23,-286.72,-0.501,0.5,-0.743,,
8.571144,-1.366,-0.447,-0.387,-286.72,-173.941,-286.72,-0.554,0.41,-0.786,,
8.5854,-1.362,-0.378,-0.325,-286.72,-151.41,-286.72,-0.573,0.357,-0.799,,
8.602336,-1.282,-0.309,-0.358,-286.72,-122.159,-286.72,-0.592,0.301,-0.788,,
8.616544,-1.203,-0.302,-0.359,-286.72,-93.231,-286.72,-0.603,0.245,-0.791,97109.281,41.355
8.630632,-1.176,-0.287,-0.252,-286.72,-58.686,-286.72,-0.603,0.188,-0.79,,
8.644752,-1.149,-0.206,-0.189,-286.72,-32.034,-286.72,-0.596,0.132,-0.775,,
8.658976,-1.096,-0.097,-0.129,-286.72,-14.656,-286.72,-0.587,0.072,-0.748,,
8.673008,-1.043,-0.038,-0.132,-286.72,-3.132,-286.72,-0.571,0.022,-0.723,,
8.691384,-0.96,0.072,-0.053,-286.72,10.5,-286.72,-0.532,-0.059,-0.665,97113.969,41.36
8.705576,-0.899,0.146,-0.062,-286.72,23.021,-286.72,-0.502,-0.095,-0.625,,
8.719632,-0.855,0.217,-0.016,-286.72,35.98,-286.72,-0.479,-0.112,-0.578,,
8.733872,-0.882,0.244,-0.125,-286.72,48.37,-286.72,-0.451,-0.123,-0.543,,
8.74796,0.371,9.307,3.345,-286.72,85.566,-167.16,-0.423,-0.121,-0.499,,
8.762144,0.19,-1.128,5.774,-286.72,-54.329,-166.005,-0.393,-0.117,-0.451,97121.906,41.358
8.77924,-0.504,0.064,1.423,-286.72,103.101,-150.36,-0.384,-0.074,-0.387,,
8.79316,-0.362,0.116,0.498,-286.72,108.5,-149.966,-0.386,-0.041,-0.36,,
8.807432,-0.6,0.083,1.181,-286.72,135.17,-153.344,-0.385,-0.019,-0.339,,
8.821488,-0.498,0.119,1.444,-286.72,186.812,-163.975,-0.386,0.021,-0.326,,
8.835744,-0.515,0.086,1.412,-286.72,197.006,-176.277,-0.399,0.053,-0.32,97126.453,41.357
8.849808,-0.635,0.066,0.809,-286.72,209.405,-191.712,-0.408,0.092,-0.32,,
8.86392,-0.853,0.102,0.919,-286.72,189.289,-215.591,-0.423,0.123,-0.334,,
8.882288,-2.714,-0.714,-15.391,-286.72,286.676,-193.506,-0.453,0.194,-0.353,,
8.896496,-2.014,0.99,-3.934,-286.72,286.676,-207.55,-0.476,0.209,-0.377,,
8.91072,-0.646,0.541,1.305,-286.72,59.894,-157.736,-0.51,0.228,-0.398,97123.297,41.359
8.924896,-0.561,0.406,1.88,-286.72,49.98,-140.122,-0.509,0.245,-0.409,,
8.938936,-0.564,0.293,1.609,-286.72,74.209,-125.3,-0.522,0.258,-0.409,,
8.953192,-0.698,0.277,0.84,-286.72,73.474,-106.916,-0.528,0.277,-0.429,,
8.970248,-1.044,0.257,-1.11,-286.72,112.271,-85.391,-0.533,0.3,-0.448,,
8.98448,-1.113,0.19,-0.623,-286.72,110.994,-72.607,-0.55,0.326,-0.489,97139.062,41.36
8.998544,-1.03,0.301,-0.649,-286.72,104.519,-44.301,-0.56,0.344,-0.519,,
9.012608,-0.946,0.385,-0.473,-286.72,107.03,4.366,-0.559,0.363,-0.54,,
9.02688,-0.997,0.222,-0.598,-286.72,122.395,46.042,-0.562,0.379,-0.563,,
9.040936,-0.968,0.138,-0.507,-286.72,145.906,66.561,-0.565,0.396,-0.594,,
9.055128,-1.018,-0.004,-0.406,-286.72,168.91,72.73,-0.563,0.41,-0.632,97132.859,41.359
9.073408,-1.081,-0.083,-0.225,-286.72,180.915,55.536,-0.571,0.422,-0.676,,
9.08748,-1.107,-0.146,-0.135,-286.72,180.145,39.174,-0.553,0.425,-0.747,,
9.101704,-1.159,-0.138,-0.121,-286.72,168.122,18.786,-0.552,0.421,-0.797,,
9.115776,-1.182,-0.176,-0.081,-286.72,159.215,3.159,-0.547,0.41,-0.829,,
9.13,-1.189,-0.203,-0.07,-286.72,145.084,-16.126,-0.544,0.397,-0.866,97158.297,41.355
9.14416,-1.181,-0.217,0.061,-286.72,119.963,-33.609,-0.538,0.373,-0.887,,
9.16116,-1.173,-0.214,0.155,-286.72,64.838,-51.739,-0.526,0.344,-0.915,,
9.175384,-1.171,-0.16,0.141,-286.72,10.439,-55.799,-0.52,0.319,-0.927,,
9.189424,-1.18,-0.118,0.063,-286.72,-35.534,-44.1,-0.525,0.291,-0.942,,
9.203696,-1.226,-0.078,0.061,-286.72,-62.414,-21.56,-0.527,0.236,-0.949,97154.172,41.358
9.217776,-1.228,-0.092,0.006,-286.72,-74.707,4.305,-0.536,0.214,-0.944,,
9.231832,-1.22,-0.1,0.061,-286.72,-79.161,29.593,-0.539,0.186,-0.938,,
9.250088,-1.187,-0.123,0.091,-286.72,-85.12,54.469,-0.544,0.168,-0.929,,
9.2642,-1.185,-0.12,0.094,-286.72,-92.278,73.272,-0.544,0.149,-0.914,,
9.278432,-1.184,-0.133,0.087,-286.72,-101.045,92.934,-0.553,0.133,-0.899,97162.312,41.357
9.29252,-1.186,-0.166,0.068,-286.72,-105.105,107.896,-0.554,0.13,-0.876,,
9.306448,-1.19,-0.203,0.074,-286.72,-97.3,110.442,-0.563,0.122,-0.861,,
9.320696,-1.195,-0.227,0.082,-286.72,-84.84,101.841,-0.572,0.111,-0.836,,
9.334632,-1.186,-0.225,0.123,-286.72,-70.534,85.094,-0.575,0.108,-0.816,,
9.351664,-1.162,-0.261,0.095,-286.72,-57.724,56.7,-0.579,0.102,-0.799,97162.641,41.353
9.366072,-1.12,-0.31,0.09,-286.72,-46.813,26.198,-0.585,0.105,-0.791,,
9.380616,-1.092,-0.325,0.091,-286.72,-35.298,-12.959,-0.583,0.102,-0.778,,
9.395152,-1.08,-0.299,0.114,-286.72,-27.493,-53.051,-0.584,0.09,-0.757,,
9.409648,-1.061,-0.255,0.13,-286.72,-25.375,-91.228,-0.585,0.078,-0.742,,
9.424304,-1.012,-0.182,0.152,-286.72,-30.292,-127.776,-0.582,0.05,-0.725,97172.859,41.356
9.442912,-0.968,-0.115,0.174,-286.72,-47.408,-152.854,-0.577,0.037,-0.7,,
9.457416,-0.952,-0.059,0.153,-286.72,-66.15,-156.074,-0.575,0.023,-0.683,,
9.471968,-0.936,-0.018,0.154,-286.72,-83.239,-147.35,-0.565,0.01,-0.668,,
9.486496,-0.954,0.057,0.137,-286.668,-95.55,-132.414,-0.56,-0.012,-0.638,,
9.5012,-0.95,0.139,0.097,-285.976,-103.32,-108.745,-0.538,-0.024,-0.608,97172.641,41.355
9.515688,-0.951,0.161,0.094,-285.915,-107.188,-74.62,-0.534,-0.03,-0.586,,
9.533008,-0.977,0.143,0.053,-285.679,-99.575,-36.943,-0.527,-0.029,-0.555,,
9.547544,-0.994,0.155,0.022,-282.284,-87.622,-8.278,-0.517,-0.02,-0.536,,
9.56192,-0.993,0.173,-0.032,-280.49,-69.23,14.411,-0.515,-0.007,-0.512,,
9.576624,-0.952,0.17,-0.086,-273.411,-40.101,36.033,-0.512,0.003,-0.481,97191.547,41.354
9.592256,-0.923,0.125,-0.085,-266.131,-0.341,53.182,-0.51,0.036,-0.467,,
9.617664,-0.929,0.08,-0.07,-254.056,66.395,66.028,-0.519,0.073,-0.452,,
9.632512,-0.948,0.066,-0.056,-247.24,101.85,65.424,-0.525,0.099,-0.453,,
9.64524,-0.993,0.063,-0.048,-242.253,129.281,60.594,-0.532,0.114,-0.466,,
9.660096,-1.019,0.047,-0.054,-236.408,153.151,53.891,-0.542,0.131,-0.458,97185.156,41.352
9.674728,-1.038,0.049,-0.002,-231.158,170.572,45.981,-0.547,0.15,-0.473,,
9.689272,-1.064,0.023,0.053,-226.634,177.949,36.505,-0.561,0.166,-0.491,,
9.703872,-1.075,0.025,0.091,-221.935,171.404,23.861,-0.57,0.188,-0.507,,
9.718408,-1.099,0.027,0.129,-215.591,146.886,8.041,-0.575,0.192,-0.514,,
9.737304,-1.138,0.021,0.159,-206.745,98.551,-10.894,-0.583,0.216,-0.548,97176.031,41.342
9.751936,-1.155,0.037,0.187,-198.511,56,-21.376,-0.593,0.215,-0.548,,
9.766544,-1.179,0.055,0.206,-189.814,4.104,-28.945,-0.59,0.221,-0.556,,
9.781296,-1.179,0.065,0.195,-181.886,-52.833,-31.369,-0.595,0.229,-0.566,,
9.795904,-1.182,0.057,0.185,-174.562,-107.284,-28.149,-0.591,0.222,-0.559,,
9.81072,-1.201,0.085,0.144,-168.595,-156.415,-20.554,-0.587,0.233,-0.538,97182.094,41.349
9.82832,-1.192,0.113,0.036,-161.473,-205.083,-12.757,-0.58,0.23,-0.514,,
9.84292,-1.178,0.102,-0.031,-157.404,-227.001,-2.039,-0.568,0.239,-0.496,,
9.857624,-1.151,0.124,-0.044,-153.711,-234.334,9.756,-0.562,0.251,-0.483,,
9.872272,-1.08,0.12,-0.09,-149.275,-231.42,22.33,-0.546,0.257,-0.461,,
9.886992,-1.052,0.111,-0.114,-143.167,-219.511,35.963,-0.537,0.261,-0.435,97191.437,41.347
9.901608,-1.018,0.102,-0.154,-136.509,-203.096,45.553,-0.51,0.28,-0.415,,
9.916152,-1.008,0.105,-0.187,-129.99,-179.095,51.292,-0.494,0.295,-0.399,,
9.935088,-0.981,0.104,-0.244,-119.997,-137.428,51.861,-0.485,0.307,-0.383,,
9.94968,-0.963,0.056,-0.273,-111.948,-98.403,48.947,-0.471,0.321,-0.379,,
9.964456,-0.986,0.019,-0.305,-105.14,-56.744,41.799,-0.46,0.331,-0.371,97204.812,41.349
9.979112,-0.973,0.004,-0.31,-99.382,-18.366,31.876,-0.447,0.349,-0.372,,
9.99372,-0.966,-0.001,-0.304,-93.94,23.599,19.163,-0.445,0.36,-0.382,,
10.00848,-0.957,-0.002,-0.274,-87.57,60.55,4.305,-0.449,0.371,-0.384,,
10.026032,-0.941,0.004,-0.253,-80.448,96.766,-13.563,-0.453,0.375,-0.395,,
10.040776,-0.931,0.007,-0.198,-75.591,116.97,-26.731,-0.457,0.381,-0.406,97210.359,41.346
10.055384,-0.91,0.027,-0.176,-71.505,128.643,-38.229,-0.466,0.38,-0.408,,
10.06996,-0.933,0.041,-0.135,-67.848,131.784,-45.255,-0.486,0.387,-0.442,,
10.084672,-0.956,0.05,-0.108,-64.505,125.125,-45.369,-0.498,0.391,-0.451,,
10.09924,-0.949,0.059,-0.091,-61.373,109.069,-39.375,-0.505,0.389,-0.461,,
10.113944,-0.967,0.075,-0.058,-59.176,84.823,-27.536,-0.516,0.388,-0.467,97204.484,41.341
10.132752,-0.957,0.089,-0.023,-58.397,44.275,-4.287,-0.52,0.391,-0.498,,
10.147352,-0.927,0.093,-0.024,-57.426,13.212,14.998,-0.522,0.393,-0.507,,
10.162112,-0.958,0.098,-0.018,-56.665,-22.995,32.331,-0.524,0.399,-0.514,,
10.176704,-0.979,0.081,-0.005,-55.116,-60.156,52.588,-0.521,0.403,-0.506,,
10.19152,-1.004,0.07,-0.036,-53.279,-92.479,72.109,-0.511,0.411,-0.494,97229.25,41.345
10.20616,-1.055,0.087,-0.067,-51.179,-117.425,88.165,-0.506,0.421,-0.495,,
10.223728,-1.113,0.075,-0.109,-48.09,-143.465,108.045,-0.486,0.435,-0.477,,
10.238448,-1.15,0.054,-0.134,-44.406,-157.43,125.598,-0.469,0.45,-0.47,,
10.253056,-1.178,0.052,-0.205,-40.04,-162.12,137.533,-0.46,0.461,-0.464,,
10.267768,-1.176,0.064,-0.244,-34.528,-157.587,144.148,-0.445,0.473,-0.445,97218.062,41.343
10.28236,-1.179,0.05,-0.297,-29.129,-146.807,148.54,-0.422,0.481,-0.441,,
10.296936,-1.127,0.019,-0.335,-23.153,-127.654,150.264,-0.406,0.49,-0.445,,
10.315888,-1.064,-0.052,-0.34,-16.616,-98.018,147.508,-0.369,0.505,-0.434,,
10.330464,-1.004,-0.092,-0.343,-11.734,-70.096,142.485,-0.353,0.511,-0.428,,
10.345216,-0.931,-0.13,-0.352,-8.269,-42.56,130.375,-0.338,0.521,-0.421,97225.031,41.342
10.359776,-0.837,-0.123,-0.372,-5.731,-16.546,109.952,-0.326,0.522,-0.414,,
10.3744,-0.797,-0.113,-0.378,-3.701,5.136,88.077,-0.316,0.529,-0.42,,
10.389072,-0.752,-0.154,-0.362,-2.205,27.834,70.49,-0.306,0.532,-0.417,,
10.403664,-0.736,-0.184,-0.316,-1.199,46.952,51.616,-0.305,0.535,-0.417,,
10.421336,-0.719,-0.194,-0.31,-0.018,68.302,30.091,-0.3,0.541,-0.416,97219.687,41.345
10.435904,-0.717,-0.182,-0.294,1.374,82.574,11.865,-0.304,0.54,-0.417,,
10.450456,-0.718,-0.16,-0.294,2.844,93.564,-5.11,-0.304,0.54,-0.424,,
10.465136,-0.712,-0.164,-0.266,4.847,100.581,-17.894,-0.314,0.54,-0.429,,
10.479704,-0.692,-0.195,-0.241,7.009,105.009,-28.665,-0.318,0.538,-0.433,,
10.494464,-0.682,-0.198,-0.204,9.835,106.33,-36.295,-0.326,0.535,-0.433,97231.734,41.34
10.513288,-0.676,-0.179,-0.19,13.318,98.306,-45.211,-0.346,0.529,-0.44,,
10.5278,-0.679,-0.138,-0.203,16.625,87.771,-53.095,-0.356,0.523,-0.449,,
10.542432,-0.681,-0.126,-0.189,20.108,74.253,-57.278,-0.362,0.529,-0.448,,
10.55696,-0.676,-0.148,-0.171,24.334,61.696,-58.135,-0.371,0.526,-0.457,,
10.571808,-0.701,-0.144,-0.143,27.983,47.399,-57.943,-0.38,0.523,-0.452,97239.375,41.342
10.58636,-0.729,-0.138,-0.17,31.552,29.645,-58.502,-0.391,0.51,-0.458,,
10.600976,-0.758,-0.081,-0.194,35.193,13.169,-58.214,-0.395,0.511,-0.457,,
10.618672,-0.802,-0.084,-0.203,38.938,-4.463,-50.479,-0.402,0.508,-0.451,,
10.63324,-0.84,-0.13,-0.181,42.009,-15.505,-38.614,-0.405,0.501,-0.447,,
10.64796,-0.889,-0.15,-0.183,44.354,-23.835,-24.815,-0.41,0.496,-0.435,97246.984,41.344
10.662512,-0.944,-0.111,-0.208,46.174,-29.374,-8.855,-0.409,0.488,-0.438,,
10.677088,-1.005,-0.068,-0.244,48.151,-34.108,4.865,-0.405,0.488,-0.432,,
10.691792,-1.035,-0.006,-0.305,51.013,-38.316,15.575,-0.409,0.487,-0.425,,
10.710456,-1.073,-0.056,-0.317,54.932,-32.2,39.314,-0.407,0.479,-0.416,,
10.725152,-1.114,-0.177,-0.278,57.627,-22.628,59.29,-0.399,0.478,-0.412,97229.906,41.349
10.7398,-1.155,-0.157,-0.33,60.48,-11.568,73.01,-0.392,0.477,-0.412,,
10.754344,-1.184,-0.068,-0.395,63.91,-0.219,77.779,-0.378,0.474,-0.401,,
10.769032,-1.209,-0.059,-0.439,68.171,12.618,81.603,-0.379,0.477,-0.397,,
10.783568,-1.243,-0.143,-0.393,72.537,33.25,88.707,-0.372,0.477,-0.395,,
10.798272,-1.253,-0.206,-0.346,76.221,55.834,97.011,-0.37,0.47,-0.387,97251.203,41.347
10.815776,-1.288,-0.164,-0.389,80.168,78.671,101.71,-0.364,0.471,-0.386,,
10.830296,-1.276,-0.11,-0.419,84.341,93.625,97.37,-0.358,0.473,-0.377,,
10.84504,-1.243,-0.113,-0.372,89.092,105.131,93.118,-0.359,0.471,-0.384,,
10.859568,-1.184,-0.154,-0.333,93.73,114.45,90.528,-0.363,0.471,-0.384,,
10.874224,-1.123,-0.185,-0.302,98.035,118.073,87.054,-0.368,0.466,-0.379,97240.875,41.35
10.888832,-1.078,-0.219,-0.249,101.605,117.661,81.454,-0.371,0.461,-0.378,,
10.907456,-0.967,-0.226,-0.243,106.908,113.365,70.228,-0.374,0.461,-0.386,,
10.92212,-0.922,-0.217,-0.237,111.912,108.386,59.5,-0.379,0.45,-0.381,,
10.936656,-0.887,-0.166,-0.247,116.506,99.295,45.211,-0.377,0.444,-0.384,,
10.951408,-0.859,-0.165,-0.268,119.779,92.522,32.716,-0.387,0.441,-0.384,97255,41.349
10.965848,-0.853,-0.152,-0.272,123.454,85.628,21.884,-0.39,0.436,-0.379,,
10.98036,-0.837,-0.163,-0.261,127.041,80.08,12.959,-0.395,0.43,-0.374,,
10.99492,-0.838,-0.188,-0.22,130.314,75.994,8.855,-0.398,0.423,-0.375,,
11.012304,-0.835,-0.179,-0.213,134.111,69.116,5.057,-0.417,0.399,-0.373,,
11.026848,-0.838,-0.157,-0.238,137.121,63.612,0.044,-0.417,0.393,-0.366,97265.234,41.352
11.041384,-0.859,-0.086,-0.261,139.939,57.75,-4.13,-0.419,0.388,-0.364,,
11.05576,-0.87,-0.087,-0.284,142.765,53.83,-5.696,-0.426,0.374,-0.357,,
11.070472,-0.929,-0.11,-0.268,145.941,54.057,-2.966,-0.429,0.359,-0.361,,
11.084848,-0.986,-0.129,-0.242,149.039,54.224,0.928,-0.432,0.351,-0.367,,
11.10368,-1.032,-0.056,-0.274,152.46,54.46,1.558,-0.439,0.331,-0.368,97271.734,41.349
11.118216,-1.057,-0.024,-0.299,155.356,54.854,3.754,-0.446,0.32,-0.356,,
11.13264,-1.102,-0.024,-0.295,157.736,57.391,9.966,-0.448,0.309,-0.362,,
11.147312,-1.171,-0.051,-0.277,160.169,61.451,21.385,-0.455,0.297,-0.354,,
11.161856,-1.228,-0.037,-0.275,163.389,65.1,35.271,-0.459,0.285,-0.353,,
11.176544,-1.271,-0.001,-0.271,165.944,67.935,50.697,-0.458,0.277,-0.363,97275.859,41.357
11.190976,-1.308,0.027,-0.275,168.096,68.215,67.961,-0.462,0.263,-0.355,,
11.20856,-1.364,-0.003,-0.268,170.581,66.08,91.857,-0.477,0.254,-0.367,,
11.22324,-1.413,-0.012,-0.264,173.591,61.303,112.42,-0.477,0.243,-0.361,,
11.237728,-1.421,-0.015,-0.251,177.634,56.175,125.405,-0.481,0.242,-0.368,,
11.252272,-1.425,-0.019,-0.261,181.414,50.234,135.056,-0.484,0.239,-0.378,97274.234,41.355
11.266928,-1.421,-0.042,-0.265,184.581,45.5,142.24,-0.487,0.236,-0.374,,
11.281312,-1.395,-0.069,-0.256,188.79,41.667,145.215,-0.488,0.228,-0.374,,
11.300008,-1.398,-0.061,-0.28,195.711,39.638,138.294,-0.492,0.227,-0.382,,
11.31452,-1.397,-0.05,-0.293,201.189,38.483,129.894,-0.492,0.219,-0.39,,
11.329136,-1.422,-0.05,-0.3,206.027,39.559,122.124,-0.494,0.217,-0.379,97274.984,41.364
11.343552,-1.416,-0.093,-0.279,210.42,42.07,114.467,-0.501,0.217,-0.387,,
11.357944,-1.431,-0.104,-0.261,215.871,44.59,106.881,-0.5,0.212,-0.394,,
11.372608,-1.406,-0.083,-0.274,221.366,45.868,97.011,-0.505,0.202,-0.388,,
11.387216,-1.364,-0.059,-0.285,225.829,45.351,85.496,-0.514,0.187,-0.403,,
11.406064,-1.313,-0.012,-0.289,231.464,47.355,75.766,-0.512,0.179,-0.409,97288.141,41.364
11.431496,-1.259,-0.009,-0.269,238.875,49.717,74.804,-0.522,0.165,-0.417,,
11.446072,-1.242,-0.014,-0.26,242.253,49.893,79.214,-0.524,0.154,-0.424,,
11.460912,-1.245,0.014,-0.257,245.061,47.373,84.341,-0.527,0.15,-0.43,,
11.475456,-1.269,0.076,-0.251,248.369,42.035,88.795,-0.529,0.14,-0.431,,
11.490192,-1.248,0.064,-0.25,251.86,31.885,96.661,-0.539,0.123,-0.453,97297.609,41.358
11.508888,-1.236,0.034,-0.214,255.579,15.951,109.183,-0.539,0.117,-0.453,,
11.523512,-1.207,0.048,-0.215,257.959,1.566,116.41,-0.542,0.118,-0.461,,
11.53828,-1.175,0.089,-0.213,260.321,-13.405,117.346,-0.542,0.114,-0.475,,
11.55292,-1.178,0.116,-0.21,263.804,-26.574,119.893,-0.546,0.113,-0.471,,
11.567688,-1.179,0.063,-0.228,267.374,-40.819,126.359,-0.547,0.107,-0.48,97302.906,41.366
11.582336,-1.19,0.037,-0.239,269.806,-50.339,129.325,-0.553,0.104,-0.487,,
11.596928,-1.16,0.059,-0.261,271.556,-57.015,128.371,-0.552,0.109,-0.491,,
11.614688,-1.139,0.135,-0.251,274.96,-59.124,124.058,-0.549,0.105,-0.492,,
11.62924,-1.143,0.148,-0.258,278.224,-63.315,124.836,-0.548,0.1,-0.486,,
11.643952,-1.149,0.102,-0.288,282.065,-65.275,127.619,-0.552,0.097,-0.486,97322.141,41.372
11.658544,-1.136,0.132,-0.27,283.894,-65.8,126.744,-0.55,0.093,-0.495,,
11.67312,-1.137,0.201,-0.269,285.154,-65.03,125.414,-0.549,0.095,-0.498,,
11.68788,-1.128,0.229,-0.259,286.099,-61.521,121.809,-0.549,0.088,-0.486,,
11.706592,-1.072,0.16,-0.273,286.676,-55.536,119.28,-0.546,0.083,-0.493,,
11.721352,-1.058,0.157,-0.273,286.676,-49.998,119.446,-0.549,0.081,-0.49,97316.937,41.37
11.735984,-1.077,0.177,-0.248,286.676,-47.95,120.19,-0.55,0.076,-0.502,,
11.75064,-1.077,0.231,-0.233,286.676,-44.179,120.881,-0.552,0.071,-0.514,,
11.7654,-1.066,0.256,-0.192,286.676,-39.375,121.433,-0.556,0.077,-0.514,,
11.779992,-1.082,0.256,-0.189,286.676,-39.261,125.641,-0.557,0.072,-0.512,,
11.794744,-1.096,0.22,-0.19,286.676,-44.844,130.384,-0.562,0.073,-0.521,97310.078,41.378
11.8124,-1.11,0.205,-0.195,286.676,-52.22,131.434,-0.562,0.075,-0.529,,
11.826952,-1.128,0.234,-0.13,286.676,-54.425,126.438,-0.568,0.07,-0.539,,
11.841672,-1.142,0.249,-0.075,286.676,-60.165,118.58,-0.568,0.075,-0.538,,
11.856224,-1.187,0.227,-0.081,286.676,-72.546,109.174,-0.567,0.069,-0.54,,
11.870968,-1.222,0.203,-0.128,286.676,-85.601,99.181,-0.568,0.072,-0.547,97330.062,41.382
11.885552,-1.252,0.198,-0.109,286.676,-94.736,85.54,-0.566,0.071,-0.551,,
11.904264,-1.248,0.2,-0.072,286.676,-102.743,67.156,-0.564,0.059,-0.554,,
11.919008,-1.227,0.21,-0.097,286.676,-104.44,52.404,-0.565,0.055,-0.555,,
11.933632,-1.191,0.212,-0.112,286.676,-105.963,36.304,-0.563,0.046,-0.545,,
11.948416,-1.122,0.23,-0.073,286.676,-105.639,19.18,-0.563,0.04,-0.548,97343.219,41.382
11.963072,-1.076,0.242,0.011,286.676,-98.823,3.194,-0.554,0.034,-0.555,,
11.977664,-1.056,0.263,0.07,286.676,-90.011,-8.689,-0.557,0.027,-0.559,,
11.9954,-1.033,0.294,0.001,286.676,-86.984,-15.75,-0.545,0.005,-0.579,,
12.009984,-1.01,0.322,-0.041,286.676,-93.817,-20.825,-0.543,-0.012,-0.575,,
12.024696,-1.012,0.321,0.019,286.676,-96.854,-24.325,-0.533,-0.021,-0.586,97335.937,41.387
12.039312,-1.015,0.306,0.174,286.676,-93.336,-23.17,-0.533,-0.033,-0.606,,
12.053864,-1.046,0.291,0.216,286.676,-90.457,-19.294,-0.528,-0.04,-0.612,,
12.068648,-1.047,0.306,0.147,286.676,-99.444,-18.681,-0.525,-0.05,-0.624,,
12.0832,-1.042,0.354,0.085,286.676,-115.386,-24.019,-0.527,-0.056,-0.63,,
12.102088,-1.041,0.285,0.154,286.676,-132.396,-28.971,-0.52,-0.063,-0.662,97344.109,41.386
12.11672,-1.036,0.238,0.254,286.676,-139.003,-29.076,-0.515,-0.071,-0.667,,
12.131376,-1.054,0.181,0.307,286.676,-141.645,-27.3,-0.511,-0.075,-0.683,,
12.146128,-1.05,0.169,0.278,286.676,-142.643,-28.91,-0.51,-0.08,-0.687,,
12.16072,-1.027,0.168,0.265,286.676,-140.28,-31.264,-0.51,-0.086,-0.701,,
12.175496,-0.996,0.154,0.26,286.676,-138.827,-39.436,-0.507,-0.087,-0.724,97361.141,41.393
12.193104,-0.952,0.135,0.227,286.676,-130.839,-53.891,-0.504,-0.087,-0.741,,
12.207488,-0.94,0.125,0.247,286.676,-118.309,-62.781,-0.502,-0.087,-0.757,,
12.222192,-0.927,0.059,0.255,286.676,-105.534,-67.865,-0.498,-0.082,-0.769,,
12.23668,-0.941,0.023,0.277,286.676,-92.802,-73.876,-0.498,-0.08,-0.778,,
12.251424,-0.968,0.018,0.274,286.676,-80.99,-75.521,-0.495,-0.078,-0.802,97373.875,41.391
12.265976,-0.991,0.014,0.27,286.676,-67.445,-79.581,-0.494,-0.074,-0.837,,
12.284736,-1.015,-0.015,0.27,286.676,-50.356,-80.194,-0.489,-0.061,-0.849,,
12.2994,-1.032,-0.01,0.269,286.676,-37.065,-77.945,-0.484,-0.049,-0.88,,
12.314008,-1.04,-0.029,0.285,286.676,-25.174,-72.012,-0.478,-0.041,-0.892,,
12.328672,-1.054,-0.083,0.268,286.676,-17.01,-64.864,-0.479,-0.026,-0.902,97374,41.386
12.343248,-1.058,-0.12,0.271,286.676,-8.426,-62.046,-0.478,0.016,-0.946,,
12.357776,-1.088,-0.185,0.26,286.676,-3.194,-61.775,-0.473,0.036,-0.971,,
12.3724,-1.105,-0.211,0.261,286.676,2.572,-66.299,-0.474,0.059,-0.978,,
12.38992,-1.132,-0.238,0.25,286.676,12.793,-72.012,-0.469,0.084,-0.99,,
12.4044,-1.137,-0.246,0.251,286.676,22.426,-77.884,-0.468,0.108,-1,97371.906,41.382
12.418944,-1.151,-0.291,0.18,286.676,29.225,-77.499,-0.47,0.133,-1.009,,
12.4334,-1.171,-0.353,0.118,286.676,36.575,-75.18,-0.465,0.193,-1.033,,
12.448096,-1.173,-0.37,0.087,286.676,48.597,-78.146,-0.461,0.228,-1.025,,
12.46256,-1.173,-0.346,0.117,286.676,66.649,-83.563,-0.457,0.255,-1.013,,
12.489368,-1.251,-0.361,0.074,286.676,108.859,-91.717,-0.451,0.314,-1.009,97379.203,41.388
12.50436,-1.277,-0.379,-0.004,286.676,119.726,-88.287,-0.444,0.344,-0.995,,
12.519328,-1.298,-0.36,-0.054,286.676,125.694,-80.369,-0.438,0.378,-0.992,,
12.53452,-1.319,-0.332,-0.029,286.676,135.389,-69.615,-0.433,0.403,-0.973,,
12.549472,-1.377,-0.327,0.018,286.676,148.102,-55.274,-0.422,0.468,-0.95,,
12.564712,-1.404,-0.309,-0.043,286.676,155.881,-37.039,-0.421,0.49,-0.928,97371.469,41.38
12.579696,-1.428,-0.264,-0.144,286.676,154.639,-20.405,-0.416,0.516,-0.892,,
12.5976,-1.446,-0.242,-0.156,286.676,143.911,-0.647,-0.41,0.529,-0.864,,
12.6118,-1.442,-0.272,-0.087,286.676,137.2,14.087,-0.405,0.553,-0.826,,
12.625872,-1.435,-0.284,-0.058,286.676,123.13,32.83,-0.401,0.568,-0.796,,
12.64012,-1.43,-0.242,-0.121,286.676,102.874,45.911,-0.392,0.588,-0.719,97391.359,41.378
12.654224,-1.379,-0.152,-0.155,286.676,80.089,51.861,-0.387,0.592,-0.681,,
12.668256,-1.323,-0.081,-0.214,286.676,57.138,53.821,-0.382,0.597,-0.634,,
12.68668,-1.28,-0.124,-0.223,286.676,41.23,61.408,-0.374,0.589,-0.588,,
12.700824,-1.26,-0.153,-0.237,286.676,35.271,70.262,-0.373,0.577,-0.544,,
12.715032,-1.239,-0.03,-0.282,286.676,30.765,69.711,-0.367,0.558,-0.498,97393.125,41.375
12.72912,-1.22,0.117,-0.292,286.676,30.415,67.419,-0.364,0.536,-0.46,,
12.7432,-1.212,0.127,-0.263,286.676,28.796,72.1,-0.351,0.478,-0.394,,
12.757488,-1.217,0.053,-0.257,286.676,24.981,86.257,-0.352,0.442,-0.358,,
12.771536,-1.183,0.032,-0.285,286.676,14.788,99.732,-0.344,0.408,-0.332,,
12.78864,-1.151,0.181,-0.214,286.676,2.485,108.106,-0.34,0.364,-0.305,97387.781,41.378
12.802808,-1.127,0.312,-0.138,286.676,-5.845,110.469,-0.338,0.317,-0.3,,
12.816784,-1.144,0.306,-0.116,286.676,-15.426,115.342,-0.331,0.27,-0.277,,
12.830976,-1.171,0.258,-0.13,286.676,-30.406,125.554,-0.33,0.223,-0.261,,
12.844896,-1.198,0.239,-0.135,286.676,-52.92,137.051,-0.326,0.169,-0.268,,
12.859104,-1.171,0.261,-0.094,286.676,-73.316,139.711,-0.321,0.077,-0.276,97402.359,41.379
12.87728,-1.132,0.279,0.026,286.676,-86.896,127.129,-0.312,0.031,-0.291,,
12.891208,-1.098,0.273,0.011,286.676,-95.524,115.141,-0.31,-0.02,-0.302,,
12.90544,-1.072,0.228,-0.037,286.676,-112.262,104.414,-0.306,-0.057,-0.34,,
12.91952,-1.051,0.267,-0.044,286.676,-124.364,91.507,-0.299,-0.095,-0.374,,
12.933792,-1.051,0.268,0.034,286.676,-128.126,80.378,-0.296,-0.134,-0.403,97404.516,41.378
12.94776,-1.077,0.267,0.152,286.676,-128.712,68.653,-0.293,-0.164,-0.435,,
12.964632,-1.096,0.254,0.141,286.676,-131.451,53.743,-0.293,-0.212,-0.541,,
12.978712,-1.086,0.253,0.079,286.676,-130.751,42.149,-0.29,-0.228,-0.582,,
12.992784,-1.065,0.275,0.067,286.676,-120.365,33.373,-0.29,-0.238,-0.628,,
13.006864,-1.013,0.239,0.137,286.676,-106.584,32.322,-0.292,-0.245,-0.68,97406.906,41.389
13.020944,-0.992,0.202,0.174,286.676,-96.906,31.334,-0.298,-0.239,-0.734,,
13.035008,-1.011,0.207,0.171,286.676,-93.266,25.979,-0.307,-0.225,-0.789,,
13.0492,-1.03,0.179,0.182,286.676,-89.976,20.396,-0.307,-0.208,-0.83,,
13.067488,-1.097,0.072,0.283,286.676,-82.442,20.799,-0.315,-0.155,-0.921,,
13.081576,-1.125,0.012,0.3,286.676,-78.995,20.3,-0.329,-0.122,-0.97,97419.844,41.377
13.095672,-1.149,0.047,0.269,286.676,-76.283,14.744,-0.336,-0.081,-0.994,,
13.109752,-1.132,0.087,0.255,286.676,-71.645,8.881,-0.344,-0.034,-1.029,,
13.123904,-1.115,0.045,0.264,286.676,-64.47,8.015,-0.354,0.011,-1.043,,
13.137832,-1.128,-0.085,0.223,286.676,-56.333,12.267,-0.352,0.07,-1.063,,
13.154856,-1.139,-0.185,0.214,286.676,-43.811,13.939,-0.36,0.125,-1.078,97426.266,41.379
13.168888,-1.2,-0.158,0.187,286.676,-29.969,6.711,-0.374,0.233,-1.07,,
13.182968,-1.257,-0.126,0.211,286.676,-12.233,-2.861,-0.382,0.287,-1.067,,
13.198424,-1.307,-0.157,0.16,286.676,8.059,-6.423,-0.382,0.345,-1.045,,
13.22336,-1.353,-0.24,0.029,286.676,23.292,4.952,-0.382,0.444,-0.991,,
13.237768,-1.342,-0.228,-0.002,286.676,36.391,10.605,-0.379,0.482,-0.952,97435.594,41.378
13.251904,-1.343,-0.214,0.034,286.676,57.094,18.165,-0.379,0.517,-0.913,,
13.270152,-1.356,-0.237,0.06,286.676,79.319,27.475,-0.379,0.55,-0.87,,
13.284512,-1.354,-0.265,-0.012,286.676,88.935,32.847,-0.376,0.576,-0.815,,
13.298696,-1.375,-0.257,-0.101,286.676,93.984,38.745,-0.364,0.601,-0.722,,
13.313008,-1.414,-0.264,-0.111,286.676,96.372,44.065,-0.366,0.605,-0.667,97427.781,41.375
13.327192,-1.454,-0.276,-0.051,286.676,98.866,50.347,-0.357,0.6,-0.602,,
13.34136,-1.457,-0.288,-0.004,286.676,98.849,58.765,-0.359,0.592,-0.546,,
13.358672,-1.435,-0.231,-0.119,286.676,92.54,62.632,-0.353,0.569,-0.497,,
13.372768,-1.411,-0.139,-0.219,286.676,90.073,59.307,-0.351,0.542,-0.444,,
13.387032,-1.384,-0.096,-0.229,286.676,91.341,57.251,-0.35,0.504,-0.413,97440.266,41.371
13.401184,-1.37,-0.105,-0.215,286.676,95.725,57.96,-0.352,0.417,-0.352,,
13.41528,-1.365,-0.109,-0.157,286.676,97.589,59.57,-0.356,0.37,-0.326,,
13.429528,-1.326,-0.102,-0.135,286.676,93.091,59.666,-0.365,0.314,-0.312,,
13.443624,-1.288,-0.022,-0.16,286.676,85.418,55.055,-0.372,0.262,-0.304,,
13.462064,-1.2,0.083,-0.126,286.676,72.695,50.382,-0.372,0.199,-0.297,97436.687,41.371
13.476232,-1.145,0.094,-0.106,286.676,60.051,56.866,-0.382,0.141,-0.297,,
13.49036,-1.124,0.082,-0.101,286.676,44.634,67.279,-0.386,0.09,-0.319,,
13.504656,-1.09,0.099,-0.089,286.676,26.635,72.17,-0.396,-0.012,-0.372,,
13.518808,-1.038,0.173,-0.022,286.676,12.267,70.341,-0.399,-0.054,-0.412,,
13.53316,-0.996,0.212,0.04,286.676,-1.19,61.696,-0.401,-0.092,-0.452,97448.844,41.372
13.550304,-0.958,0.226,0.07,286.676,-12.854,50.234,-0.402,-0.12,-0.491,,
13.5644,-0.939,0.209,0.08,286.676,-23.651,41.799,-0.411,-0.144,-0.548,,
13.578664,-0.908,0.195,0.113,286.676,-33.626,29.645,-0.408,-0.159,-0.592,,
13.592808,-0.905,0.216,0.139,286.676,-42.831,17.587,-0.408,-0.172,-0.644,,
13.607072,-0.913,0.201,0.218,286.676,-53.541,6.86,-0.413,-0.174,-0.694,97463.75,41.369
13.6212,-0.895,0.181,0.224,286.676,-66.115,-4.2,-0.414,-0.157,-0.798,,
13.635296,-0.857,0.166,0.239,286.676,-72.012,-18.051,-0.416,-0.142,-0.848,,
13.653776,-0.866,0.165,0.294,286.676,-73.36,-31.124,-0.414,-0.114,-0.888,,
13.667904,-0.828,0.165,0.272,286.676,-69.755,-34.318,-0.42,-0.079,-0.925,,
13.682208,-0.749,0.144,0.295,286.676,-64.094,-34.011,-0.422,-0.04,-0.957,97467.016,41.373
13.696368,-0.731,0.119,0.282,286.676,-58.231,-31.273,-0.429,-0.003,-0.985,,
13.710536,-0.733,0.068,0.308,286.676,-51.301,-29.05,-0.431,0.042,-1.006,,
13.724832,-0.721,0.029,0.329,286.676,-45.115,-27.23,-0.441,0.147,-1.035,,
13.74196,-0.766,-0.072,0.324,286.676,-46.104,-31.246,-0.445,0.2,-1.028,,
13.756208,-0.758,-0.132,0.359,286.676,-46.533,-35.42,-0.45,0.248,-1.021,97458.75,41.368
13.770384,-0.722,-0.135,0.306,286.676,-41.283,-42.787,-0.458,0.296,-1.01,,
13.78448,-0.746,-0.09,0.329,286.676,-36.155,-51.949,-0.46,0.348,-0.985,,
13.798736,-0.788,-0.095,0.327,286.676,-36.566,-50.435,-0.467,0.389,-0.954,,
13.812832,-0.784,-0.165,0.245,286.676,-39.156,-47.959,-0.473,0.424,-0.913,,
13.827088,-0.788,-0.218,0.176,286.676,-37.161,-49.298,-0.473,0.457,-0.877,97460.594,41.371
13.845432,-0.837,-0.199,0.162,286.676,-31.229,-55.318,-0.485,0.501,-0.785,,
13.85956,-0.861,-0.195,0.141,286.676,-21.525,-59.929,-0.492,0.506,-0.737,,
13.873864,-0.934,-0.193,0.15,286.676,-5.267,-67.935,-0.498,0.512,-0.682,,
13.888016,-0.971,-0.178,0.029,286.676,9.161,-71.496,-0.501,0.511,-0.64,,
13.90236,-1.043,-0.141,0.009,286.676,22.032,-68.95,-0.505,0.487,-0.594,97475.281,41.379
13.916536,-1.12,-0.124,0.041,286.676,29.505,-62.134,-0.512,0.461,-0.547,,
13.933664,-1.191,-0.043,0.003,286.676,33.513,-49.411,-0.521,0.398,-0.488,,
13.94792,-1.249,-0.006,0.001,286.676,38.334,-28.193,-0.523,0.359,-0.469,,
13.96208,-1.319,0.01,-0.029,286.676,36.487,-5.198,-0.521,0.315,-0.438,,
13.976344,-1.365,0.018,-0.035,286.676,37.371,19.731,-0.527,0.28,-0.429,97479.719,41.371
13.990408,-1.411,0.008,-0.03,286.676,31.736,41.825,-0.528,0.236,-0.434,,
14.004496,-1.482,0.029,0.002,286.676,19.871,57.487,-0.53,0.203,-0.428,,
14.018744,-1.533,0.021,-0.017,286.676,1.68,65.24,-0.528,0.161,-0.434,,
14.037008,-1.558,0.056,-0.01,286.676,-19.381,71.173,-0.524,0.094,-0.465,,
14.051216,-1.568,0.078,0.005,286.676,-35.936,74.165,-0.53,0.067,-0.478,97489.391,41.378
14.065368,-1.559,0.095,-0.032,286.676,-51.555,77.717,-0.535,0.041,-0.495,,
14.079536,-1.533,0.083,-0.012,286.676,-60.62,81.594,-0.526,0.016,-0.517,,
14.093848,-1.487,0.121,-0.012,286.676,-66.255,78.934,-0.531,-0.003,-0.551,,
14.107904,-1.446,0.123,-0.001,286.676,-65.406,74.734,-0.53,-0.013,-0.579,,
14.125,-1.394,0.157,0.01,286.676,-61.784,70.534,-0.536,-0.032,-0.641,97500.703,41.375
14.139176,-1.358,0.161,0.02,286.676,-63.088,69.799,-0.539,-0.023,-0.668,,
14.15324,-1.3,0.168,0.061,286.676,-70.621,69.519,-0.542,-0.021,-0.703,,
14.167512,-1.258,0.157,0.047,286.676,-80.868,68.749,-0.544,-0.012,-0.727,,
14.181552,-1.224,0.16,0.094,286.676,-86.607,64.269,-0.544,0.005,-0.755,,
14.19584,-1.169,0.139,0.088,286.676,-93.424,59.78,-0.552,0.023,-0.771,97509.5,41.377
14.20996,-1.138,0.146,0.09,286.676,-93.765,52.237,-0.558,0.047,-0.799,,
14.228112,-1.102,0.119,0.119,286.676,-94.588,41.965,-0.565,0.09,-0.82,,
14.242328,-1.058,0.099,0.128,286.676,-94.036,31.57,-0.573,0.12,-0.826,,
14.256488,-1.005,0.055,0.161,286.676,-89.854,17.815,-0.578,0.149,-0.837,,
14.27076,-0.981,0.043,0.151,286.676,-83.816,-2.231,-0.58,0.174,-0.835,97511.766,41.382
14.28488,-0.955,0.042,0.145,286.676,-68.827,-16.8,-0.582,0.194,-0.824,,
14.298936,-0.973,-0.001,0.206,286.676,-52.115,-28.612,-0.586,0.214,-0.815,,
14.316176,-0.982,0.014,0.168,286.676,-35.385,-40.049,-0.592,0.234,-0.811,,
14.330336,-0.967,0.018,0.187,286.676,-14.052,-40.556,-0.591,0.247,-0.803,,
14.344552,-0.995,-0.002,0.195,286.676,2.529,-33.609,-0.595,0.272,-0.782,97519.156,41.371
14.358624,-0.959,-0.026,0.173,286.676,17.64,-22.417,-0.595,0.285,-0.765,,
14.372688,-0.925,-0.067,0.153,286.676,33.959,-13.16,-0.594,0.3,-0.757,,
14.386984,-0.927,-0.061,0.15,286.676,52.789,-2.152,-0.593,0.308,-0.743,,
14.401024,-0.93,-0.091,0.146,286.676,69.475,10.64,-0.594,0.311,-0.732,,
14.419264,-0.93,-0.138,0.181,286.676,77.262,19.915,-0.593,0.318,-0.727,97526.328,41.371
14.433352,-0.906,-0.149,0.189,286.676,76.982,28.228,-0.595,0.327,-0.71,,
14.447456,-0.865,-0.157,0.129,286.676,71.409,38.658,-0.591,0.336,-0.692,,
14.46168,-0.846,-0.19,0.061,286.676,69.046,49.123,-0.59,0.343,-0.67,,
14.475704,-0.811,-0.196,0.007,286.676,74.007,56.105,-0.592,0.338,-0.66,,
14.489912,-0.82,-0.202,0.018,286.676,84.219,62.388,-0.592,0.341,-0.654,97521.547,41.371
14.50684,-0.866,-0.229,0.023,286.676,100.984,70.42,-0.587,0.332,-0.636,,
14.520904,-0.891,-0.231,0.042,286.676,104.808,76.02,-0.59,0.338,-0.626,,
14.53512,-0.89,-0.203,-0.048,286.676,98.726,80.745,-0.586,0.329,-0.615,,
14.549152,-0.866,-0.144,-0.135,286.676,93.31,78.304,-0.587,0.322,-0.597,,
14.563232,-0.873,-0.139,-0.132,286.676,93.835,78.181,-0.585,0.313,-0.592,97542.75,41.376
14.57736,-0.911,-0.16,-0.107,286.676,98.989,84.122,-0.59,0.298,-0.583,,
14.59128,-0.962,-0.161,-0.083,286.676,100.581,92.146,-0.586,0.286,-0.577,,
14.609528,-1.014,-0.054,-0.13,286.676,94.789,97.939,-0.591,0.273,-0.578,,
14.623576,-1.034,0.067,-0.127,286.676,83.571,98.647,-0.591,0.266,-0.579,,
14.637728,-1.026,0.047,-0.141,286.676,76.317,99.313,-0.592,0.256,-0.58,97540.359,41.376
14.651808,-1.045,0.022,-0.121,286.676,71.286,99.662,-0.59,0.25,-0.576,,
14.665872,-1.045,-0.007,-0.138,286.676,67.209,102.882,-0.591,0.236,-0.578,,
14.680088,-1.069,0.045,-0.117,286.676,58.748,102.55,-0.599,0.22,-0.582,,
14.697,-1.114,0.119,-0.018,286.676,48.108,94.325,-0.596,0.213,-0.583,,
14.711192,-1.13,0.126,0.052,286.676,35.114,81.795,-0.596,0.203,-0.591,97544.156,41.377
14.725144,-1.137,0.092,0.042,286.676,20.204,66.132,-0.598,0.198,-0.591,,
14.739176,-1.14,0.086,0,286.676,5.521,48.772,-0.597,0.193,-0.599,,
14.75328,-1.121,0.152,0.008,286.676,-2.039,34.877,-0.602,0.182,-0.596,,
14.767376,-1.105,0.156,0.105,286.676,-1.68,26.968,-0.599,0.171,-0.601,,
14.781576,-1.094,0.106,0.216,286.676,-6.519,17.5,-0.599,0.156,-0.609,97550.141,41.377
14.799824,-1.102,0.075,0.309,286.676,-26.862,-7.289,-0.596,0.142,-0.637,,
14.813912,-1.129,0.099,0.222,286.676,-46.489,-34.737,-0.599,0.127,-0.639,,
14.8282,-1.146,0.128,0.232,286.676,-59.01,-59.614,-0.596,0.115,-0.65,,
14.842256,-1.14,0.122,0.268,286.676,-64.671,-76.904,-0.594,0.1,-0.657,,
14.856568,-1.105,0.086,0.341,286.676,-66.474,-84.35,-0.594,0.092,-0.669,97554.797,41.37
14.870672,-1.071,0.063,0.345,286.676,-66.579,-86.861,-0.591,0.078,-0.691,,
14.887592,-1.016,0.04,0.296,286.676,-57.54,-95.253,-0.587,0.058,-0.724,,
14.901672,-0.992,0.069,0.283,286.676,-40.311,-104.466,-0.583,0.057,-0.745,,
14.915672,-0.976,0.045,0.318,286.676,-22.636,-102.209,-0.577,0.054,-0.755,,
14.92992,-1.042,-0.034,0.352,286.676,-13.694,-95.043,-0.575,0.051,-0.776,97573.297,41.379
14.944048,-1.11,-0.13,0.351,286.676,-13.422,-89.548,-0.576,0.057,-0.8,,
14.959192,-1.11,-0.172,0.351,286.676,-18.734,-88.603,-0.57,0.07,-0.83,,
14.984296,-1.073,-0.128,0.228,286.676,-30.17,-89.749,-0.565,0.095,-0.864,,
15.002848,-0.982,-0.102,0.221,286.676,-14.586,-84.446,-0.56,0.137,-0.886,,
15.017136,-0.954,-0.137,0.18,286.676,-2.73,-72.065,-0.561,0.164,-0.892,97561.437,41.373
15.031312,-0.916,-0.179,0.108,286.676,5.766,-61.521,-0.565,0.193,-0.897,,
15.04552,-0.932,-0.217,0.085,286.676,16.651,-57.251,-0.566,0.219,-0.894,,
15.05984,-0.944,-0.197,0.07,286.676,28.464,-54.889,-0.566,0.248,-0.884,,
15.074016,-0.947,-0.198,0.092,286.676,33.443,-50.54,-0.563,0.271,-0.873,,
15.09128,-0.927,-0.11,0.004,286.676,42.315,-42.726,-0.566,0.297,-0.872,97582.187,41.376
15.105472,-0.868,-0.055,-0.047,286.676,52.483,-21.298,-0.567,0.319,-0.851,,
15.119568,-0.891,-0.031,-0.048,286.676,59.605,4.883,-0.563,0.361,-0.826,,
15.133832,-0.934,-0.019,-0.007,286.676,58.371,35.472,-0.56,0.387,-0.798,,
15.14792,-0.979,-0.047,-0.01,286.676,49.289,69.353,-0.559,0.409,-0.771,,
15.162192,-1.009,-0.046,-0.035,286.676,34.632,92.759,-0.554,0.421,-0.743,97573.719,41.369
15.17632,-1.097,0.004,-0.043,286.676,15.382,101.938,-0.554,0.433,-0.701,,
15.194576,-1.127,0.096,-0.071,286.676,-12.653,106.89,-0.547,0.444,-0.667,,
15.20888,-1.129,0.051,-0.089,286.676,-30.371,115.316,-0.54,0.451,-0.628,,
15.22304,-1.182,0.051,-0.053,286.676,-46.673,119.77,-0.53,0.437,-0.55,,
15.237328,-1.228,0.061,-0.081,286.676,-66.832,122.404,-0.52,0.42,-0.514,97586.437,41.379
15.251496,-1.23,0.136,-0.104,286.676,-83.073,116.865,-0.512,0.403,-0.475,,
15.265632,-1.25,0.201,-0.109,286.676,-91.332,110.731,-0.499,0.376,-0.439,,
15.282936,-1.284,0.261,-0.07,286.676,-94.701,106.549,-0.486,0.337,-0.406,,
15.29704,-1.34,0.25,-0.07,286.676,-96.434,104.738,-0.478,0.296,-0.372,,
15.311296,-1.367,0.247,-0.074,286.676,-96.67,102.839,-0.466,0.253,-0.357,97581.531,41.372
15.32544,-1.389,0.249,-0.055,286.676,-93.109,101.999,-0.457,0.205,-0.346,,
15.339536,-1.424,0.271,0.01,286.676,-91.945,98.385,-0.44,0.109,-0.355,,
15.353872,-1.446,0.305,0.046,286.676,-88.629,94.736,-0.433,0.07,-0.362,,
15.36796,-1.478,0.307,0.079,286.676,-85.768,94.894,-0.43,0.028,-0.376,,
15.386392,-1.525,0.26,0.102,286.676,-97.457,98.84,-0.433,-0.019,-0.4,97590.031,41.379
15.400544,-1.503,0.229,0.124,286.676,-107.389,93.756,-0.425,-0.059,-0.43,,
15.414736,-1.488,0.187,0.188,286.676,-114.301,87.211,-0.424,-0.091,-0.465,,
15.429032,-1.438,0.13,0.171,286.676,-120.899,72.118,-0.422,-0.137,-0.553,,
15.443176,-1.367,0.085,0.141,286.676,-121.319,46.541,-0.423,-0.156,-0.591,,
15.457472,-1.291,0.102,0.13,286.676,-112.403,18.786,-0.419,-0.156,-0.636,97604.375,41.379
15.474664,-1.173,0.078,0.15,286.676,-93.984,-8.619,-0.425,-0.167,-0.682,,
15.488768,-1.085,0.015,0.185,286.676,-72.135,-26.189,-0.425,-0.171,-0.73,,
15.503016,-1.009,-0.023,0.19,286.676,-45.605,-37.791,-0.424,-0.161,-0.777,,
15.517136,-0.985,-0.015,0.216,286.676,-16.993,-44.004,-0.42,-0.15,-0.822,,
15.531416,-0.947,0,0.19,286.676,5.985,-51.214,-0.416,-0.131,-0.868,97616.75,41.381
15.545576,-0.911,0.005,0.218,286.676,31.019,-55.116,-0.408,-0.07,-0.956,,
15.559664,-0.897,-0.041,0.212,286.676,56.779,-52.981,-0.406,-0.031,-0.998,,
15.578096,-0.864,-0.149,0.187,286.676,86.161,-41.659,-0.402,0.011,-1.021,,
15.592712,-0.84,-0.184,0.198,286.676,105.052,-30.844,-0.395,0.061,-1.05,,
15.607488,-0.821,-0.162,0.231,286.676,120.076,-22.19,-0.383,0.119,-1.063,97607.297,41.376
15.622128,-0.818,-0.142,0.288,286.676,127.54,-8.059,-0.377,0.171,-1.077,,
15.636752,-0.783,-0.213,0.244,286.676,122.194,9.756,-0.357,0.288,-1.086,,
15.651536,-0.748,-0.295,0.145,286.676,112.761,23.03,-0.344,0.346,-1.07,,
15.669168,-0.718,-0.315,0.087,286.676,105.525,30.319,-0.333,0.405,-1.038,,
15.683944,-0.724,-0.308,0.119,286.676,104.571,30.048,-0.324,0.462,-1.005,97619.469,41.377
15.698552,-0.775,-0.32,0.087,286.676,109.174,28.7,-0.317,0.506,-0.966,,
15.713144,-0.76,-0.32,0.019,286.676,116.034,25.699,-0.301,0.579,-0.883,,
15.72792,-0.735,-0.304,-0.081,286.676,122.132,26.854,-0.296,0.612,-0.825,,
15.74244,-0.731,-0.296,-0.12,286.676,129.902,24.526,-0.291,0.626,-0.765,,
15.757184,-0.726,-0.293,-0.141,286.676,138.469,22.339,-0.287,0.631,-0.705,97628.703,41.369
15.775888,-0.743,-0.257,-0.141,286.676,156.38,26.46,-0.284,0.632,-0.652,,
15.790552,-0.8,-0.243,-0.164,286.676,170.607,34.318,-0.285,0.614,-0.557,,
15.80524,-0.897,-0.19,-0.201,286.676,182.648,46.48,-0.287,0.596,-0.514,,
15.819856,-0.941,-0.128,-0.231,286.676,187.67,57.531,-0.291,0.574,-0.456,,
15.834552,-0.983,-0.086,-0.258,286.676,189.499,71.067,-0.295,0.541,-0.411,97623.594,41.373
15.849248,-1.035,-0.108,-0.235,286.676,191.187,82.031,-0.301,0.504,-0.378,,
15.866696,-1.091,-0.113,-0.217,286.676,187.504,98.403,-0.309,0.464,-0.354,,
15.881392,-1.149,-0.063,-0.19,286.676,179.27,104.711,-0.328,0.376,-0.316,,
15.895984,-1.187,-0.004,-0.139,286.676,160.125,105.98,-0.338,0.337,-0.307,,
15.910568,-1.25,-0.004,-0.1,286.676,131.469,103.031,-0.347,0.286,-0.291,97629.797,41.375
15.925104,-1.307,-0.053,-0.058,286.676,97.808,95.882,-0.354,0.234,-0.287,,
15.93964,-1.34,-0.065,-0.075,286.676,60.104,79.257,-0.363,0.196,-0.296,,
15.958488,-1.381,-0.031,-0.097,286.676,20.029,46.13,-0.374,0.098,-0.314,,
15.973048,-1.405,0.042,-0.064,286.676,2.004,14.07,-0.376,0.049,-0.332,,
15.98776,-1.413,0.086,-0.027,286.676,-6.755,-14.438,-0.373,0.004,-0.345,97636.203,41.377
16.002336,-1.452,0.116,-0.012,286.676,-14.962,-40.88,-0.368,-0.037,-0.374,,
16.016976,-1.457,0.122,-0.062,286.676,-23.266,-60.366,-0.366,-0.085,-0.406,,
16.03168,-1.472,0.159,-0.09,286.676,-28.472,-75.049,-0.359,-0.123,-0.44,,
16.046304,-1.485,0.265,0,286.676,-27.458,-86.677,-0.349,-0.155,-0.484,,
16.063992,-1.503,0.322,0.176,286.676,-23.905,-86.555,-0.329,-0.212,-0.582,97645.328,41.375
16.078416,-1.528,0.356,0.196,286.676,-30.608,-75.338,-0.321,-0.222,-0.626,,
16.092936,-1.51,0.372,0.141,286.676,-51.354,-60.979,-0.313,-0.238,-0.667,,
16.10768,-1.513,0.405,0.145,286.676,-82.329,-49.061,-0.31,-0.239,-0.721,,
16.1222,-1.472,0.332,0.242,286.676,-108.868,-40.346,-0.306,-0.234,-0.78,,
16.136896,-1.474,0.245,0.32,286.676,-130.095,-35.709,-0.3,-0.222,-0.809,97644.875,41.372
16.15548,-1.4,0.192,0.346,286.676,-156.231,-36.68,-0.303,-0.193,-0.897,,
16.170056,-1.356,0.221,0.31,286.676,-169.068,-38.824,-0.306,-0.17,-0.928,,
16.184776,-1.31,0.225,0.249,286.676,-182.158,-41.423,-0.315,-0.14,-0.952,,
16.199304,-1.25,0.19,0.25,286.676,-190.549,-46.165,-0.324,-0.109,-0.992,,
16.214008,-1.156,0.104,0.235,286.676,-189.289,-52.229,-0.332,-0.074,-1,97676.625,41.376
16.2286,-1.096,0.046,0.237,286.676,-175.28,-61.556,-0.349,-0.047,-1.015,,
16.245944,-1.042,0.053,0.203,286.676,-150.062,-75.381,-0.374,0.031,-1.049,,
16.260608,-0.99,0.091,0.187,286.676,-127.934,-84.175,-0.385,0.067,-1.047,,
16.27512,-0.941,0.092,0.208,286.676,-106.137,-80.658,-0.393,0.095,-1.055,,
16.28984,-0.89,0.045,0.216,286.676,-89.994,-70.49,-0.403,0.135,-1.063,97664.562,41.369
16.3044,-0.83,0.003,0.222,286.676,-77.621,-59.202,-0.411,0.177,-1.055,,
16.318912,-0.774,-0.027,0.209,286.676,-67.139,-47.119,-0.422,0.207,-1.048,,
16.333608,-0.714,-0.061,0.193,286.676,-57.339,-36.768,-0.435,0.278,-1.034,,
16.352336,-0.677,-0.058,0.175,286.676,-40.136,-30.8,-0.445,0.311,-1.018,,
16.367016,-0.658,-0.055,0.185,286.676,-22.916,-27.125,-0.445,0.345,-0.994,97672.156,41.371
16.381464,-0.652,-0.068,0.194,286.676,-8.627,-19.609,-0.448,0.382,-0.983,,
16.396,-0.667,-0.154,0.164,286.676,-6.597,-8.68,-0.451,0.403,-0.96,,
16.410576,-0.62,-0.206,0.111,286.676,-9.485,1.321,-0.457,0.461,-0.924,,
16.425184,-0.567,-0.201,0.129,286.676,-8.698,3.789,-0.458,0.483,-0.897,,
16.442688,-0.545,-0.17,0.176,286.676,-0.061,3.22,-0.462,0.494,-0.85,97687.906,41.372
16.457224,-0.539,-0.208,0.163,286.676,4.9,4.34,-0.463,0.514,-0.821,,
16.471616,-0.627,-0.269,0.046,286.676,4.629,6.825,-0.455,0.538,-0.793,,
16.486344,-0.69,-0.312,-0.037,286.676,7.053,7.446,-0.46,0.538,-0.749,,
16.50088,-0.746,-0.306,0.019,286.676,20.528,2.608,-0.461,0.548,-0.686,,
16.51556,-0.773,-0.287,0.066,286.676,36.269,-0.201,-0.455,0.545,-0.663,97677.281,41.367
16.530128,-0.831,-0.325,0.003,286.676,45.456,-4.148,-0.46,0.547,-0.632,,
16.548808,-0.875,-0.312,-0.171,286.676,51.888,-17.395,-0.458,0.532,-0.61,,
16.563488,-0.92,-0.315,-0.159,286.676,65.179,-24.859,-0.459,0.523,-0.568,,
16.578008,-1.014,-0.332,-0.097,286.676,83.493,-31.001,-0.465,0.512,-0.549,,
16.592696,-1.11,-0.329,-0.128,286.676,97.711,-37.266,-0.477,0.478,-0.516,97682.828,41.365
16.607256,-1.184,-0.272,-0.227,286.676,104.326,-46.165,-0.481,0.464,-0.504,,
16.621784,-1.24,-0.247,-0.251,286.676,116.349,-54.967,-0.487,0.441,-0.484,,
16.639416,-1.313,-0.272,-0.118,286.676,133.368,-53.821,-0.501,0.419,-0.478,,
16.653936,-1.356,-0.269,-0.101,286.676,135.756,-54.189,-0.504,0.397,-0.46,,
16.668656,-1.399,-0.19,-0.105,286.676,126.875,-58.214,-0.515,0.371,-0.459,97706.5,41.376
16.68308,-1.402,-0.159,-0.121,286.676,110.268,-63.166,-0.534,0.323,-0.465,,
16.69748,-1.432,-0.186,-0.079,286.676,91.639,-61.504,-0.539,0.305,-0.465,,
16.712248,-1.441,-0.163,-0.081,286.676,74.147,-61.198,-0.539,0.276,-0.461,,
16.726784,-1.443,-0.126,-0.09,286.676,57.278,-63.63,-0.545,0.25,-0.466,,
16.745664,-1.426,-0.105,-0.07,286.676,34.265,-68.486,-0.549,0.226,-0.471,97701.719,41.364
16.772312,-1.362,-0.046,-0.09,286.676,0.56,-76.79,-0.55,0.151,-0.484,,
16.787016,-1.359,-0.003,-0.108,286.676,-15.164,-83.335,-0.551,0.124,-0.486,,
16.801824,-1.359,-0.003,-0.127,286.676,-26.548,-82.915,-0.548,0.103,-0.489,,
16.816592,-1.372,0.046,-0.173,286.676,-34.248,-79.931,-0.542,0.076,-0.491,,
16.831384,-1.382,0.077,-0.187,286.676,-35.735,-72.739,-0.536,0.053,-0.502,97709.891,41.363
16.849088,-1.394,0.131,-0.198,286.676,-30.739,-65.004,-0.53,0.035,-0.517,,
16.86368,-1.386,0.184,-0.185,286.676,-25.812,-53.489,-0.523,-0.007,-0.53,,
16.878408,-1.378,0.18,-0.194,286.676,-20.51,-34.615,-0.518,-0.019,-0.556,,
16.892984,-1.345,0.231,-0.209,286.676,-13.064,-15.68,-0.515,-0.034,-0.553,,
16.90776,-1.345,0.226,-0.202,286.676,-6.51,6.624,-0.511,-0.045,-0.579,97723.344,41.37
16.922368,-1.348,0.232,-0.206,285.215,-4.76,32.664,-0.515,-0.054,-0.598,,
16.941096,-1.332,0.258,-0.13,279.475,2.494,57.033,-0.521,-0.055,-0.635,,
16.955856,-1.332,0.209,-0.168,274.584,5.171,73.771,-0.526,-0.055,-0.648,,
16.970536,-1.288,0.197,-0.176,268.818,7.997,86.196,-0.528,-0.051,-0.655,,
16.98532,-1.272,0.186,-0.143,262.78,14.114,95.331,-0.534,-0.046,-0.663,97731.703,41.37
16.999992,-1.256,0.182,-0.115,258.16,20.431,103.355,-0.541,-0.041,-0.683,,
17.014624,-1.255,0.161,-0.093,253.601,23.415,109.673,-0.547,-0.026,-0.705,,
17.029424,-1.236,0.14,-0.084,250.399,26.504,112.201,-0.552,-0.019,-0.718,,
17.047008,-1.214,0.099,-0.099,245.429,30.45,111.912,-0.562,0.009,-0.746,,
17.061616,-1.19,0.064,-0.119,241.99,34.151,107.144,-0.565,0.021,-0.757,97746.812,41.368
17.076224,-1.146,0.042,-0.098,238.07,38.264,98.262,-0.57,0.039,-0.768,,
17.090824,-1.109,0.032,-0.074,234.141,41.037,87.15,-0.573,0.055,-0.786,,
17.105544,-1.078,0.01,-0.054,230.991,44.109,75.819,-0.575,0.067,-0.797,,
17.120128,-1.052,0.008,-0.048,228.944,44.555,61.696,-0.576,0.077,-0.8,,
17.134848,-1.053,0.013,-0.032,227.299,45.719,48.134,-0.58,0.1,-0.834,97752.906,41.375
17.153624,-1.034,0.034,-0.019,224.298,49.306,32.366,-0.578,0.112,-0.83,,
17.168208,-1.037,0.025,-0.007,221.646,52.15,22.531,-0.579,0.127,-0.845,,
17.182976,-1.018,0.039,-0.003,218.732,54.189,15.54,-0.578,0.136,-0.849,,
17.197584,-0.979,0.032,0.003,216.107,56.376,11.314,-0.575,0.14,-0.86,,
17.212344,-0.956,0.045,0.012,213.491,54.276,7.499,-0.572,0.165,-0.879,97752.25,41.371
17.227032,-0.919,0.053,0.031,210.989,50.216,6.073,-0.57,0.172,-0.888,,
17.244608,-0.867,0.048,0.053,208.583,44.783,6.641,-0.567,0.179,-0.892,,
17.259352,-0.851,0.058,0.039,205.861,38.859,8.015,-0.563,0.196,-0.899,,
17.27392,-0.839,0.075,0.049,202.624,31.92,12.259,-0.56,0.201,-0.893,,
17.288696,-0.854,0.059,0.062,199.167,24.719,19.285,-0.564,0.208,-0.898,97746.484,41.372
17.303288,-0.889,0.073,0.064,194.775,14.648,24.167,-0.562,0.236,-0.902,,
17.317864,-0.909,0.071,0.079,190.759,1.426,29.444,-0.56,0.253,-0.902,,
17.332584,-0.923,0.033,0.091,186.926,-12.11,35.875,-0.559,0.261,-0.897,,
17.3514,-0.917,0.007,0.088,183.12,-30.371,41.772,-0.561,0.27,-0.9,,
17.366152,-0.91,0.029,0.058,180.241,-42.271,42.166,-0.563,0.287,-0.875,97759.625,41.372
17.3808,-0.926,0.002,0.041,176.943,-49.184,44.048,-0.568,0.306,-0.872,,
17.395416,-0.966,0.001,0.034,173.311,-52.806,46.55,-0.567,0.319,-0.861,,
17.410216,-0.978,-0.025,0.014,169.689,-54.241,46.891,-0.567,0.333,-0.85,,
17.424848,-0.982,-0.026,0.01,166.337,-51.721,44.389,-0.573,0.343,-0.834,,
17.442576,-0.974,-0.045,0.001,162.479,-49.621,41.536,-0.568,0.356,-0.831,97765.172,41.382
17.457136,-0.946,-0.035,-0.006,159.163,-43.041,37.651,-0.571,0.369,-0.803,,
17.471728,-0.96,-0.04,-0.01,156.45,-36.881,33.626,-0.566,0.38,-0.801,,
17.486408,-0.951,-0.037,-0.033,153.072,-27.597,30.599,-0.567,0.387,-0.794,,
17.500976,-0.954,-0.034,-0.051,149.091,-14.14,30.581,-0.57,0.39,-0.778,,
17.51572,-0.953,-0.059,-0.052,145.311,1.4,27.16,-0.568,0.399,-0.768,97784.109,41.381
17.530312,-0.942,-0.061,-0.052,141.654,18.961,23.354,-0.564,0.4,-0.761,,
17.549104,-0.927,-0.078,-0.051,136.833,43.592,15.698,-0.565,0.41,-0.763,,
17.563848,-0.94,-0.078,-0.048,133.061,62.904,8.855,-0.564,0.417,-0.763,,
17.578384,-0.957,-0.075,-0.029,129.22,79.214,6.729,-0.564,0.418,-0.759,,
17.593176,-0.965,-0.081,-0.016,125.79,88.585,4.909,-0.557,0.418,-0.761,97799.969,41.377
17.607864,-0.942,-0.067,-0.018,122.001,95.97,4.287,-0.556,0.426,-0.767,,
17.622472,-0.938,-0.083,-0.005,118.466,100.826,5.67,-0.558,0.427,-0.762,,
17.64008,-0.897,-0.1,0.004,115.054,104.624,2.179,-0.552,0.427,-0.766,,
17.654688,-0.879,-0.131,0.007,112.656,106.794,-5.18,-0.549,0.428,-0.77,,
17.669488,-0.901,-0.135,0.024,111.151,105.499,-15.663,-0.547,0.428,-0.772,97788.219,41.378
17.684032,-0.916,-0.138,0.043,110.425,100.826,-25.288,-0.542,0.434,-0.78,,
17.698624,-0.976,-0.149,0.061,110.294,93.861,-36.409,-0.541,0.434,-0.786,,
17.71332,-1.025,-0.14,0.082,110.189,83.939,-49.236,-0.54,0.432,-0.782,,
17.72792,-1.078,-0.139,0.079,110.338,72.94,-62.213,-0.547,0.428,-0.793,,
17.746648,-1.137,-0.157,0.081,110.364,61.705,-77.683,-0.549,0.425,-0.783,97803.328,41.376
17.761224,-1.2,-0.135,0.097,110.372,52.806,-92.794,-0.554,0.423,-0.787,,
17.775768,-1.243,-0.119,0.1,110.232,44.17,-105.394,-0.557,0.415,-0.789,,
17.790576,-1.291,-0.085,0.108,109.121,35.219,-116.305,-0.559,0.406,-0.786,,
17.805112,-1.317,-0.06,0.106,107.503,25.567,-117.276,-0.559,0.397,-0.785,,
17.819776,-1.346,-0.065,0.074,104.571,17.946,-115.631,-0.57,0.384,-0.789,97790.281,41.382
17.837368,-1.392,-0.026,0.046,99.654,13.816,-107.625,-0.571,0.375,-0.778,,
17.851936,-1.406,-0.02,0.031,94.964,15.531,-96.679,-0.575,0.367,-0.784,,
17.866688,-1.434,-0.003,0.023,89.338,21.315,-86.31,-0.579,0.356,-0.775,,
17.881216,-1.456,-0.002,0.02,84.131,25.567,-71.33,-0.579,0.35,-0.772,,
17.895968,-1.427,0.001,0.012,79.24,32.296,-57.461,-0.585,0.342,-0.783,97822.359,41.381
17.910528,-1.413,0.027,0.036,73.255,40.04,-41.676,-0.583,0.34,-0.788,,
17.925168,-1.356,0.022,0.029,67.585,45.211,-25.112,-0.583,0.341,-0.787,,
17.944032,-1.304,0.033,0.027,60.541,51.266,-3.658,-0.587,0.334,-0.784,,
17.958656,-1.236,-0.002,0.04,55.125,55.466,11.865,-0.587,0.335,-0.786,,
17.973352,-1.181,-0.006,0.045,50.085,56.963,23.144,-0.586,0.332,-0.796,97807.141,41.377
17.987848,-1.113,-0.038,0.034,46.069,56.63,31.255,-0.578,0.339,-0.799,,
18.002376,-1.059,-0.036,0.059,42.639,56.385,33.451,-0.581,0.347,-0.801,,
18.01716,-1,-0.037,0.076,39.891,54.827,33.443,-0.574,0.354,-0.807,,
18.03168,-0.964,-0.067,0.07,37.529,51.853,29.724,-0.569,0.353,-0.807,,
18.044568,-0.916,-0.09,0.076,35.954,48.764,26.259,-0.567,0.354,-0.808,97817.578,41.392
18.059136,-0.886,-0.095,0.08,34.816,46.541,16.433,-0.567,0.358,-0.815,,
18.073768,-0.875,-0.094,0.098,34.151,44.783,0.28,-0.568,0.368,-0.813,,
18.088456,-0.875,-0.102,0.102,34.545,41.624,-17.194,-0.563,0.365,-0.814,,
18.103016,-0.862,-0.094,0.105,35.053,36.094,-35.709,-0.563,0.366,-0.829,,
18.117744,-0.854,-0.1,0.123,36.278,29.479,-53.594,-0.564,0.36,-0.829,97826.031,41.387
18.135336,-0.85,-0.086,0.124,38.465,19.093,-75.215,-0.565,0.36,-0.825,,
18.149848,-0.853,-0.078,0.124,40.241,9.669,-87.85,-0.568,0.354,-0.829,,
18.164544,-0.818,-0.074,0.117,41.195,0.49,-96.836,-0.57,0.346,-0.826,,
18.179104,-0.787,-0.051,0.117,41.265,-6.169,-102.97,-0.571,0.338,-0.815,,
18.1938,-0.772,-0.02,0.133,40.46,-10.517,-106.461,-0.577,0.32,-0.822,97833.969,41.385
18.20836,-0.766,-0.002,0.132,39.743,-13.869,-109.323,-0.581,0.313,-0.82,,
18.22276,-0.777,0.018,0.136,38.806,-15.977,-110.618,-0.584,0.302,-0.816,,
18.241552,-0.829,0.014,0.122,36.934,-19.583,-106.601,-0.587,0.29,-0.816,,
18.25608,-0.846,0.023,0.121,34.685,-20.667,-104.107,-0.588,0.278,-0.805,,
18.270784,-0.861,0.039,0.122,32.235,-22.347,-98.569,-0.596,0.26,-0.806,97830.625,41.386
18.28536,-0.856,0.052,0.125,29.006,-22.995,-91.14,-0.595,0.249,-0.807,,
18.29988,-0.84,0.047,0.133,25.532,-20.493,-80.255,-0.597,0.245,-0.802,,
18.31456,-0.83,0.026,0.159,21.595,-15.741,-65.135,-0.597,0.236,-0.792,,
18.33204,-1.628,1.826,-10.615,-16.056,-68.434,111.729,-0.595,0.228,-0.802,,
18.346728,-1.312,0.722,-5.732,-28.7,-71.452,135.083,-0.594,0.239,-0.788,97832.25,41.388
18.361328,-1.319,0.146,-3.673,-41.283,-88.349,144.384,-0.603,0.256,-0.745,,
18.375904,-1.321,0.177,-3.258,-49.534,-77.717,142.599,-0.606,0.269,-0.729,,
18.3906,-1.337,0.003,-2.959,-54.285,-51.327,132.519,-0.605,0.284,-0.717,,
18.405112,-1.047,0.365,-0.757,-55.125,4.445,6.457,-0.603,0.291,-0.702,,
18.419792,-1.075,0.026,-0.815,-61.276,39.646,-18.2,-0.607,0.294,-0.71,97839.422,41.388
18.438568,-0.843,-0.091,0.934,-67.629,66.745,-52.754,-0.606,0.291,-0.724,,
18.453088,-0.881,-0.08,0.625,-71.225,98.201,-78.47,-0.607,0.278,-0.742,,
18.467656,-0.96,-0.029,0.435,-73.421,120.4,-104.361,-0.607,0.274,-0.748,,
18.482192,-1.012,0.003,0.198,-74.305,127.059,-121.861,-0.61,0.263,-0.76,,
18.496808,-1.059,0.045,0.151,-74.743,124.81,-136.167,-0.605,0.244,-0.766,97852.328,41.387
18.511264,-1.102,0.102,0.086,-74.786,106.085,-146.562,-0.605,0.228,-0.788,,
18.528592,-1.103,0.163,0.092,-77.989,76.528,-144.734,-0.602,0.206,-0.803,,
18.543328,-1.118,0.21,0.108,-82.889,44.31,-138.005,-0.599,0.189,-0.803,,
18.557888,-1.117,0.205,0.206,-89.924,9.424,-124.618,-0.592,0.174,-0.806,,
18.573664,-1.127,0.203,0.313,-97.982,-23.511,-102.147,-0.593,0.155,-0.801,97870.078,41.386
18.5992,-1.176,0.274,0.297,-111.16,-65.371,-59.412,-0.593,0.129,-0.787,,
18.613928,-1.171,0.291,0.301,-119.586,-84.717,-32.366,-0.594,0.122,-0.793,,
18.63288,-1.111,0.308,0.267,-128.765,-105.7,2.721,-0.594,0.116,-0.761,,
18.647432,-1.053,0.306,0.256,-135.538,-113.426,28.105,-0.599,0.109,-0.749,,
18.6622,-1.019,0.307,0.142,-141.54,-115.841,52.509,-0.599,0.115,-0.739,97869.953,41.391
18.676792,-0.997,0.279,0.106,-146.143,-115.159,70.42,-0.602,0.114,-0.715,,
18.691384,-1.022,0.253,0.127,-148.706,-102.235,85.094,-0.604,0.122,-0.697,,
18.706112,-1.041,0.242,0.102,-149.275,-82.145,92.584,-0.606,0.138,-0.691,,
18.720736,-1.073,0.217,0.031,-150.089,-60.891,95.217,-0.608,0.142,-0.674,,
18.746736,-1.064,0.198,0.002,-152.652,-24.544,91.411,-0.608,0.157,-0.663,97871.578,41.393
18.761744,-1.047,0.16,0.019,-154.21,-1.286,84.595,-0.615,0.18,-0.661,,
18.776824,-1.032,0.146,0.035,-155.881,20.493,71.706,-0.61,0.195,-0.665,,
18.792032,-1.022,0.141,0.031,-157.885,33.031,56.271,-0.617,0.197,-0.654,,
18.807104,-1.031,0.146,0.008,-160.667,37.879,38.237,-0.616,0.205,-0.674,,
18.822312,-1.05,0.177,0.004,-163.59,37.94,21.927,-0.611,0.213,-0.674,97878.531,41.392
18.841584,-1.078,0.18,0.066,-166.451,33.162,4.996,-0.617,0.219,-0.683,,
18.855712,-1.091,0.207,0.081,-167.633,19.618,-3.132,-0.614,0.221,-0.688,,
18.87,-1.104,0.242,0.01,-170.581,2.747,-7.989,-0.614,0.22,-0.681,,
18.884136,-1.11,0.243,-0.025,-175.21,-15.47,-12.53,-0.611,0.217,-0.682,,
18.89844,-1.127,0.24,0.005,-180.372,-32.016,-13.248,-0.62,0.222,-0.681,97887.328,41.394
18.912672,-1.17,0.269,0.058,-183.89,-44.24,-10.894,-0.616,0.222,-0.684,,
18.926808,-1.225,0.279,0.04,-187.372,-59.456,-2.949,-0.615,0.219,-0.668,,
18.944088,-1.301,0.284,-0.078,-193.935,-85.741,12.722,-0.617,0.219,-0.662,,
18.958184,-1.337,0.317,-0.126,-202.011,-105.927,30.389,-0.612,0.229,-0.663,,
18.972504,-1.346,0.335,-0.14,-208.792,-115.29,52.447,-0.612,0.229,-0.64,97906.672,41.395
18.986632,-1.359,0.352,-0.107,-212.844,-111.449,73.211,-0.611,0.237,-0.626,,
19.000752,-1.385,0.346,-0.15,-215.469,-101.981,94.29,-0.602,0.244,-0.618,,
19.015016,-1.393,0.248,-0.211,-218.61,-89.521,113.33,-0.603,0.259,-0.619,,
19.033328,-1.358,0.205,-0.242,-223.265,-65.17,126.455,-0.602,0.289,-0.6,,
19.047608,-1.351,0.196,-0.272,-226.31,-41.615,128.896,-0.597,0.311,-0.602,97886.047,41.388
19.061784,-1.34,0.152,-0.277,-228.594,-17.981,128.398,-0.591,0.329,-0.606,,
19.07592,-1.334,0.075,-0.291,-231.954,4.279,120.496,-0.585,0.347,-0.61,,
19.090248,-1.302,0.013,-0.291,-236.215,24.36,109.533,-0.583,0.36,-0.618,,
19.104392,-1.307,0.002,-0.256,-240.432,41.274,89.924,-0.581,0.378,-0.626,,
19.118704,-1.338,0.037,-0.247,-244.773,53.305,67.305,-0.572,0.386,-0.644,97903.641,41.392
19.135888,-1.334,0.026,-0.272,-250.189,60.708,44.083,-0.571,0.4,-0.678,,
19.15,-1.34,-0.032,-0.253,-254.739,62.09,34.125,-0.571,0.401,-0.697,,
19.1642,-1.318,-0.061,-0.21,-258.291,59.754,25.454,-0.571,0.408,-0.718,,
19.178296,-1.318,-0.089,-0.203,-261.301,54.101,14.35,-0.572,0.407,-0.733,,
19.192592,-1.266,-0.059,-0.22,-264.871,45.972,4.077,-0.567,0.404,-0.741,97902.219,41.391
19.20672,-1.229,-0.04,-0.21,-269.255,36.881,-0.411,-0.564,0.405,-0.755,,
19.225056,-1.129,-0.031,-0.204,-274.698,27.466,-0.954,-0.563,0.393,-0.78,,
19.239352,-1.085,-0.082,-0.203,-277.979,26.066,3.92,-0.564,0.383,-0.807,,
19.253488,-1.024,-0.106,-0.174,-281.986,28.263,8.61,-0.562,0.375,-0.827,,
19.267792,-0.963,-0.13,-0.146,-284.358,28.927,12.329,-0.559,0.375,-0.841,97914.156,41.38
19.281952,-0.884,-0.123,-0.156,-285.81,32.638,17.106,-0.563,0.369,-0.852,,
19.296104,-0.832,-0.147,-0.155,-286.624,37.1,19.53,-0.556,0.354,-0.865,,
19.31032,-0.796,-0.158,-0.173,-286.72,43.636,20.851,-0.556,0.341,-0.863,,
19.327312,-0.798,-0.196,-0.147,-286.72,55.764,25.708,-0.55,0.336,-0.887,,
19.341632,-0.852,-0.232,-0.086,-286.72,69.632,28.149,-0.549,0.32,-0.894,97926.125,41.391
19.355704,-0.892,-0.249,-0.034,-286.72,84.035,27.58,-0.541,0.296,-0.929,,
19.369808,-0.94,-0.268,-0.034,-286.72,90.589,19.924,-0.533,0.279,-0.937,,
19.384016,-0.969,-0.28,-0.044,-286.72,93.223,9.039,-0.527,0.27,-0.958,,
19.398136,-1.025,-0.307,0.003,-286.72,96.224,-5.696,-0.523,0.243,-0.968,,
19.416512,-1.067,-0.285,0.124,-286.72,91.262,-25.323,-0.517,0.222,-0.978,97925.25,41.387
19.430688,-1.118,-0.268,0.185,-286.72,78.82,-42.254,-0.511,0.202,-0.978,,
19.444768,-1.16,-0.234,0.201,-286.72,61.241,-54.714,-0.504,0.172,-0.982,,
19.459112,-1.22,-0.25,0.191,-286.72,39.655,-63.026,-0.492,0.124,-0.989,,
19.473168,-1.256,-0.228,0.193,-286.72,19.976,-70.499,-0.49,0.096,-0.993,,
19.48748,-1.315,-0.214,0.231,-286.72,4.244,-77.446,-0.489,0.07,-0.975,97927.734,41.382
19.5046,-1.359,-0.145,0.251,-286.72,-14.184,-87.272,-0.483,0.045,-0.967,,
19.51856,-1.393,-0.123,0.25,-286.72,-30.546,-88.191,-0.479,0.018,-0.951,,
19.532832,-1.385,-0.123,0.228,-286.72,-42.858,-84.954,-0.477,-0.008,-0.937,,
19.546752,-1.379,-0.105,0.225,-286.72,-49.971,-82.215,-0.474,-0.034,-0.911,,
19.561032,-1.356,-0.07,0.203,-286.72,-52.964,-78.802,-0.469,-0.055,-0.888,97935.812,41.386
19.575136,-1.332,-0.021,0.2,-286.72,-54.127,-77.647,-0.466,-0.092,-0.842,,
19.589304,-1.303,0.005,0.179,-286.72,-52.981,-73.054,-0.464,-0.116,-0.823,,
19.607616,-1.251,0.035,0.182,-286.72,-50.313,-66.001,-0.46,-0.125,-0.788,,
19.62176,-1.203,0.028,0.178,-286.72,-45.15,-59.649,-0.456,-0.138,-0.765,,
19.635984,-1.168,0.031,0.165,-286.72,-39.725,-57.085,-0.452,-0.151,-0.738,97942.219,41.388
19.650232,-1.132,0.066,0.176,-286.72,-35.49,-56.569,-0.443,-0.155,-0.698,,
19.664304,-1.116,0.095,0.158,-286.72,-34.344,-57.164,-0.445,-0.163,-0.664,,
19.678488,-1.11,0.136,0.167,-286.72,-38.5,-58.608,-0.427,-0.165,-0.617,,
19.69548,-1.086,0.198,0.104,-286.72,-47.399,-60.226,-0.422,-0.16,-0.583,,
19.709616,-1.042,0.225,0.083,-286.72,-53.629,-58.818,-0.412,-0.152,-0.551,97957.969,41.389
19.723688,-1.012,0.234,0.075,-286.72,-59.894,-54.189,-0.408,-0.147,-0.516,,
19.737616,-0.963,0.221,0.098,-286.72,-63.219,-48.886,-0.401,-0.131,-0.495,,
19.751816,-0.955,0.236,0.094,-286.72,-66.316,-46.165,-0.392,-0.118,-0.461,,
19.765904,-0.949,0.289,0.017,-286.72,-70.77,-41.037,-0.391,-0.102,-0.426,,
19.78428,-0.93,0.316,-0.086,-286.72,-74.375,-26.959,-0.374,-0.071,-0.389,97953.609,41.38
19.798376,-0.932,0.304,-0.094,-286.72,-72.476,-11.996,-0.366,-0.041,-0.371,,
19.81244,-0.927,0.302,-0.048,-286.72,-64.872,2.686,-0.365,-0.015,-0.338,,
19.826704,-0.946,0.315,-0.079,-286.72,-54.46,17.229,-0.359,0.013,-0.316,,
19.840768,-0.949,0.284,-0.158,-286.72,-47.46,33.775,-0.35,0.05,-0.306,,
19.854976,-0.944,0.223,-0.242,-286.72,-41.081,48.248,-0.354,0.082,-0.289,97959.484,41.385
19.86908,-0.935,0.184,-0.282,-286.72,-27.615,55.842,-0.348,0.119,-0.281,,
19.886168,-0.944,0.212,-0.247,-286.72,-1.82,59.36,-0.351,0.188,-0.278,,
19.900248,-0.976,0.212,-0.239,-286.72,20.003,58.222,-0.346,0.232,-0.287,,
19.914288,-1.02,0.198,-0.276,-286.72,38.5,58.573,-0.351,0.266,-0.294,,
19.92836,-1.061,0.12,-0.29,-286.72,54.644,57.724,-0.354,0.304,-0.302,97973.5,41.378
19.942424,-1.08,0.071,-0.276,-286.72,64.89,51.546,-0.357,0.339,-0.31,,
19.9564,-1.097,-0.006,-0.274,-286.72,69.598,48.458,-0.364,0.379,-0.331,,
19.974632,-1.06,-0.045,-0.278,-286.72,66.01,40.338,-0.37,0.409,-0.364,,
19.988696,-1.053,0.007,-0.258,-286.72,64.566,24.859,-0.376,0.465,-0.405,,
20.002928,-1.022,0.069,-0.271,-286.72,60.629,10.579,-0.378,0.492,-0.429,97970.484,41.386
20.01708,-0.985,-0.003,-0.262,-286.72,57.636,6.457,-0.381,0.52,-0.459,,
20.031152,-0.974,-0.098,-0.228,-286.72,56.858,9.118,-0.386,0.542,-0.494,,
20.045376,-0.968,-0.163,-0.19,-286.72,57.155,15.654,-0.389,0.556,-0.521,,
20.059312,-0.961,-0.139,-0.168,-286.72,53.979,17.273,-0.389,0.568,-0.56,,
20.076512,-0.945,-0.076,-0.217,-286.72,45.246,17.01,-0.391,0.579,-0.6,97968.828,41.384
20.090472,-0.946,-0.141,-0.23,-286.72,41.501,21.184,-0.39,0.586,-0.63,,
20.10452,-0.959,-0.244,-0.108,-286.72,43.803,26.093,-0.384,0.593,-0.715,,
20.118608,-0.96,-0.308,-0.046,-286.72,47.136,25.48,-0.383,0.592,-0.752,,
20.132672,-0.97,-0.31,-0.04,-286.72,45.089,21.201,-0.38,0.589,-0.793,,
20.146752,-0.956,-0.283,-0.091,-286.72,39.725,13.676,-0.375,0.58,-0.829,97983.922,41.382
20.164992,-0.938,-0.324,-0.026,-286.72,37.555,7.525,-0.376,0.565,-0.86,,
20.179032,-0.966,-0.319,0.107,-286.72,38.701,1.916,-0.371,0.551,-0.892,,
20.193296,-1.004,-0.36,0.175,-286.72,37.135,-1.295,-0.368,0.531,-0.92,,
20.207352,-1.033,-0.371,0.119,-286.72,26.687,-7.823,-0.366,0.504,-0.948,,
20.221592,-1.031,-0.409,0.048,-286.72,12.25,-14.201,-0.359,0.445,-1.012,97987.078,41.38
20.235672,-1.029,-0.408,0.169,-286.72,-0.7,-24.964,-0.36,0.413,-1.033,,
20.252568,-1.026,-0.303,0.309,-286.72,-11.217,-43.811,-0.364,0.382,-1.047,,
20.266656,-1.022,-0.303,0.288,-286.72,-20.571,-56.472,-0.369,0.349,-1.06,,
20.280576,-1.028,-0.31,0.246,-286.72,-38.299,-65.713,-0.369,0.312,-1.074,,
20.294872,-1.029,-0.305,0.253,-286.72,-62.108,-65.87,-0.372,0.272,-1.087,97990.656,41.38
20.308904,-1.021,-0.197,0.298,-286.72,-78.488,-67.043,-0.372,0.229,-1.075,,
20.323,-1.034,-0.116,0.343,-286.72,-88.427,-69.685,-0.376,0.191,-1.073,,
20.338448,-1.054,-0.081,0.315,-286.72,-105.411,-64.452,-0.391,0.116,-1.064,,
20.367704,-1.092,-0.077,0.256,-286.72,-136.351,-38.246,-0.411,0.051,-1.026,,
20.382032,-1.089,-0.069,0.224,-286.72,-142.135,-27.09,-0.417,0.018,-1.003,97995.875,41.382
20.396344,-1.083,-0.02,0.185,-286.72,-141.82,-33.775,-0.427,-0.007,-0.97,,
20.410496,-1.081,-0.003,0.165,-286.72,-135.223,-37.844,-0.433,-0.038,-0.951,,
20.424856,-1.064,-0.004,0.124,-286.72,-122.194,-40.985,-0.439,-0.063,-0.917,,
20.439024,-1.124,0.005,0.108,-286.72,-106.024,-45.675,-0.444,-0.085,-0.888,,
20.456296,-1.141,0.108,0.091,-286.72,-93.17,-46.41,-0.45,-0.116,-0.82,98004.906,41.373
20.470424,-1.178,0.06,0.088,-286.72,-82.049,-42.928,-0.446,-0.135,-0.783,,
20.484576,-1.199,0.156,0.042,-286.72,-68.39,-45.001,-0.447,-0.15,-0.745,,
20.498856,-1.267,0.072,0.108,-286.72,-59.08,-41.772,-0.439,-0.153,-0.717,,
20.512952,-1.298,0.104,0.072,-286.72,-55.169,-53.515,-0.438,-0.156,-0.686,,
20.5272,-1.342,0.127,-0.009,-286.72,-49.201,-59.92,-0.434,-0.153,-0.644,98011.219,41.381
20.545544,-1.35,0.19,-0.025,-286.72,-35.507,-64.942,-0.422,-0.152,-0.585,,
20.559688,-1.378,0.264,0.001,-286.72,-29.654,-52.509,-0.417,-0.15,-0.555,,
20.574,-1.36,0.223,-0.021,-286.72,-25.112,-37.257,-0.411,-0.132,-0.515,,
20.58816,-1.328,0.289,-0.074,-286.72,-18.629,-23.835,-0.411,-0.121,-0.486,,
20.602496,-1.304,0.253,-0.058,-286.72,-20.405,-4.568,-0.407,-0.103,-0.453,98019.687,41.376
20.616672,-1.231,0.231,-0.083,-286.72,-20.073,8.251,-0.402,-0.082,-0.428,,
20.633648,-1.202,0.225,-0.105,-286.72,-8.181,18.007,-0.402,-0.059,-0.403,,
20.647912,-1.171,0.26,-0.122,-286.72,7.149,26.959,-0.404,-0.005,-0.366,,
20.662048,-1.152,0.249,-0.156,-286.72,19.95,44.993,-0.41,0.032,-0.352,,
20.676304,-1.146,0.183,-0.183,-286.72,34.895,64.969,-0.412,0.067,-0.346,98024.797,41.383
20.690432,-1.174,0.168,-0.195,-286.72,51.389,68.285,-0.418,0.101,-0.324,,
20.704536,-1.169,0.173,-0.152,-286.72,61.976,79.651,-0.423,0.143,-0.333,,
20.7188,-1.163,0.116,-0.13,-286.72,64.628,90.58,-0.428,0.181,-0.329,,
20.737104,-1.157,0.029,-0.148,-286.72,64.628,99.768,-0.438,0.223,-0.337,,
20.751392,-1.149,-0.001,-0.124,-286.72,68.495,100.144,-0.447,0.289,-0.358,98030.75,41.371
20.76556,-1.102,-0.014,-0.105,-286.72,69.965,100.616,-0.454,0.329,-0.37,,
20.779696,-1.106,-0.018,-0.086,-286.72,67.323,102.296,-0.458,0.366,-0.39,,
20.794048,-1.118,-0.13,-0.061,-286.72,63.123,99.146,-0.457,0.4,-0.409,,
20.808176,-1.138,-0.083,-0.068,-286.72,58.345,85.846,-0.457,0.432,-0.432,,
20.825448,-1.095,-0.133,-0.063,-286.72,54.513,84.035,-0.456,0.465,-0.463,98035.219,41.376
20.839576,-1.086,-0.168,-0.051,-286.72,50.059,78.12,-0.451,0.488,-0.49,,
20.853728,-1.053,-0.181,-0.056,-286.72,42.088,66.141,-0.446,0.53,-0.555,,
20.867976,-1.014,-0.183,-0.033,-286.72,33.127,51.669,-0.446,0.545,-0.588,,
20.882096,-0.994,-0.186,0.004,-286.72,22.251,40.941,-0.443,0.556,-0.621,,
20.896352,-0.997,-0.247,0.052,-286.72,9.879,33.731,-0.439,0.568,-0.652,98044.109,41.372
20.91052,-1.023,-0.261,0.081,-286.72,-0.875,18.55,-0.432,0.566,-0.679,,
20.928776,-1.035,-0.25,0.038,-286.72,-23.109,0.018,-0.433,0.57,-0.719,,
20.943048,-1.058,-0.254,0.005,-286.72,-34.729,-6.939,-0.432,0.565,-0.746,,
20.9572,-1.015,-0.242,0.034,-286.72,-43.033,-10.675,-0.433,0.543,-0.818,,
20.971536,-1.006,-0.227,0.135,-286.72,-49.009,-12.084,-0.434,0.529,-0.842,98062.187,41.379
20.98572,-0.98,-0.224,0.197,-286.72,-63.525,-14.149,-0.436,0.513,-0.861,,
20.99988,-0.987,-0.219,0.154,-286.72,-73.99,-19.294,-0.437,0.498,-0.887,,
21.017104,-1.02,-0.244,0.107,-286.72,-75.092,-29.951,-0.446,0.476,-0.915,,
21.031224,-1.083,-0.256,0.088,-286.72,-75.67,-43.076,-0.451,0.453,-0.931,,
21.045496,-1.118,-0.208,0.11,-286.72,-74.427,-58.319,-0.454,0.429,-0.943,98042.828,41.378
21.059624,-1.14,-0.149,0.156,-286.72,-73.552,-70.07,-0.461,0.397,-0.95,,
21.07368,-1.152,-0.094,0.126,-286.72,-71.435,-74.725,-0.474,0.337,-0.977,,
21.087936,-1.189,-0.086,0.096,-286.72,-65.056,-75.381,-0.485,0.308,-0.986,,
21.102128,-1.215,-0.132,0.106,-286.72,-59.824,-77.98,-0.49,0.272,-0.991,,
21.120568,-1.255,-0.136,0.105,-286.72,-53.489,-92.54,-0.49,0.237,-0.987,98055.766,41.377
21.13472,-1.28,-0.069,0.099,-286.72,-45.544,-108.719,-0.494,0.205,-0.984,,
21.14888,-1.3,-0.004,0.065,-286.72,-38.386,-117.294,-0.5,0.172,-0.974,,
21.163152,-1.337,0.016,0.062,-286.72,-32.952,-120.295,-0.496,0.133,-0.966,,
21.177312,-1.343,0.036,0.04,-286.72,-25.961,-123.463,-0.497,0.061,-0.942,,
21.191536,-1.392,0.054,0.034,-286.72,-18.077,-128.467,-0.497,0.025,-0.935,98062.187,41.379
21.208656,-1.412,0.114,0.067,-286.72,-18.603,-133.254,-0.491,-0.008,-0.902,,
21.222816,-1.387,0.147,0.058,-286.72,-21.166,-124.311,-0.486,-0.036,-0.897,,
21.237024,-1.352,0.171,0.051,-286.72,-21.114,-108.098,-0.478,-0.057,-0.867,,
21.251136,-1.273,0.198,0.036,-286.72,-16.625,-89.871,-0.472,-0.083,-0.837,,
21.265368,-1.222,0.213,0.019,-286.72,-10.08,-72.783,-0.461,-0.108,-0.812,98073.484,41.387
21.279544,-1.179,0.231,-0.015,-286.72,-6.466,-57.444,-0.458,-0.122,-0.777,,
21.297776,-1.158,0.251,-0.082,-286.72,-8.995,-40.653,-0.448,-0.144,-0.725,,
21.312096,-1.139,0.265,-0.08,-286.72,-10.281,-22.601,-0.446,-0.153,-0.684,,
21.32616,-1.097,0.283,-0.07,-286.72,-5.985,-2.161,-0.445,-0.153,-0.648,,
21.340304,-1.072,0.267,-0.037,-286.72,2.021,17.596,-0.44,-0.149,-0.629,98070.109,41.377
21.354392,-1.023,0.242,-0.07,-286.72,9.328,34.493,-0.441,-0.136,-0.59,,
21.36856,-0.959,0.201,-0.117,-286.72,15.137,44.581,-0.442,-0.128,-0.56,,
21.385792,-0.848,0.171,-0.158,-286.72,22.951,53.419,-0.456,-0.093,-0.529,,
21.39988,-0.766,0.146,-0.157,-286.72,32.629,58.608,-0.459,-0.076,-0.491,,
21.414152,-0.713,0.14,-0.154,-286.72,42.63,60.944,-0.462,-0.052,-0.468,98089.234,41.377
21.42824,-0.679,0.13,-0.157,-286.72,49.919,61.95,-0.469,-0.024,-0.456,,
21.442376,-0.674,0.106,-0.165,-286.72,55.475,63.814,-0.476,0,-0.437,,
21.456592,-0.686,0.071,-0.152,-286.72,56.044,67.874,-0.48,0.035,-0.426,,
21.47068,-0.696,0.049,-0.132,-286.72,55.921,69.772,-0.49,0.057,-0.417,,
21.489064,-0.637,0.029,-0.154,-286.72,54.215,69.912,-0.501,0.118,-0.412,98092.172,41.373
21.503232,-0.559,-0.014,-0.151,-286.72,55.405,72.573,-0.51,0.153,-0.414,,
21.517288,-0.524,-0.075,-0.16,-286.72,61.906,75.145,-0.517,0.182,-0.415,,
21.53164,-0.553,-0.118,-0.131,-286.72,70.228,75.39,-0.518,0.215,-0.414,,
21.545704,-0.573,-0.123,-0.135,-286.72,78.155,70.691,-0.518,0.246,-0.429,,
21.560024,-0.63,-0.122,-0.13,-286.72,84.105,61.591,-0.526,0.276,-0.444,98081.078,41.378
21.577136,-0.676,-0.164,-0.107,-286.72,90.256,46.016,-0.535,0.328,-0.473,,
21.591104,-0.724,-0.197,-0.053,-286.72,89.206,34.151,-0.535,0.353,-0.491,,
21.605312,-0.76,-0.225,0.008,-286.72,82.276,27.335,-0.542,0.378,-0.515,,
21.619376,-0.815,-0.262,0.05,-286.72,68.95,16.756,-0.543,0.393,-0.538,,
21.633568,-0.878,-0.272,0.031,-286.72,48.475,-2.03,-0.545,0.404,-0.554,98099.984,41.377
21.647688,-0.965,-0.29,0.004,-286.72,28.114,-19.836,-0.545,0.417,-0.582,,
21.661744,-1.035,-0.29,0.029,-286.72,9.642,-35.63,-0.552,0.424,-0.601,,
21.68012,-1.123,-0.223,0.127,-286.72,-9.599,-51.809,-0.553,0.427,-0.619,,
21.694192,-1.174,-0.197,0.135,-286.72,-31.955,-50.899,-0.557,0.432,-0.66,,
21.708448,-1.232,-0.174,0.115,-286.72,-58.748,-44.686,-0.558,0.426,-0.67,98119.328,41.378
21.722576,-1.266,-0.179,0.075,-286.72,-81.331,-31.167,-0.56,0.424,-0.683,,
21.736624,-1.324,-0.208,0.059,-286.72,-96.206,-23.949,-0.56,0.423,-0.693,,
21.750864,-1.381,-0.215,0.071,-286.72,-102.655,-24.955,-0.563,0.416,-0.7,,
21.767896,-1.403,-0.21,0.062,-286.72,-99.111,-32.287,-0.563,0.414,-0.711,,
21.78244,-1.421,-0.159,0.023,-286.72,-92.33,-35.499,-0.559,0.405,-0.707,98100.531,41.373
21.796968,-1.444,-0.145,-0.012,-286.72,-79.214,-29.531,-0.571,0.392,-0.735,,
21.81136,-1.451,-0.149,-0.014,-286.72,-58.494,-26.53,-0.575,0.389,-0.749,,
21.826104,-1.439,-0.152,-0.013,-286.72,-30.31,-32.611,-0.574,0.382,-0.754,,
21.84068,-1.465,-0.173,0.009,-286.72,2.196,-54.127,-0.572,0.375,-0.755,,
21.859392,-1.493,-0.143,0.027,-286.72,35.324,-88.253,-0.576,0.359,-0.778,98115.406,41.382
21.873952,-1.508,-0.091,0.071,-286.72,55.501,-118.545,-0.575,0.347,-0.785,,
21.888496,-1.493,-0.008,0.083,-286.72,63.507,-140.035,-0.582,0.308,-0.826,,
21.903216,-1.455,-0.001,0.14,-286.72,60.847,-149.196,-0.584,0.282,-0.837,,
21.917808,-1.422,0.027,0.17,-286.72,47.766,-152.792,-0.587,0.258,-0.837,,
21.932488,-1.359,0.072,0.225,-286.72,24.43,-148.663,-0.581,0.223,-0.85,98127.812,41.384
21.949848,-1.293,0.157,0.189,-286.72,-8.943,-131.495,-0.581,0.195,-0.854,,
21.96448,-1.239,0.229,0.148,-286.72,-33.871,-104.064,-0.581,0.144,-0.847,,
21.979152,-1.2,0.284,0.104,-286.72,-52.447,-71.601,-0.577,0.13,-0.834,,
21.99364,-1.145,0.31,0.034,-286.72,-57.531,-34.046,-0.579,0.11,-0.826,,
22.008176,-1.09,0.298,0.048,-286.72,-51.783,0.7,-0.579,0.091,-0.81,98132.719,41.39
22.022728,-1.045,0.272,0.074,-286.72,-42.577,32.393,-0.578,0.085,-0.796,,
22.037104,-0.997,0.259,0.076,-286.72,-32.751,55.046,-0.582,0.081,-0.787,,
22.05568,-0.927,0.235,0.004,-286.72,-21.718,78.199,-0.587,0.081,-0.763,,
22.070208,-0.919,0.225,-0.051,-286.72,-13.055,88.664,-0.591,0.082,-0.742,,
22.084976,-0.851,0.215,-0.086,-286.72,-3.561,97.134,-0.595,0.089,-0.732,98142.609,41.386
22.09952,-0.815,0.191,-0.081,-286.72,12.714,101.342,-0.597,0.099,-0.717,,
22.126,-0.763,0.169,-0.029,-286.72,46.034,94.098,-0.604,0.111,-0.717,,
22.140712,-0.749,0.124,-0.053,-286.72,55.711,88.524,-0.605,0.12,-0.714,,
22.158416,-0.75,0.086,-0.096,-286.72,60.305,76.256,-0.607,0.138,-0.714,,
22.17312,-0.783,0.084,-0.091,-286.72,59.815,66.132,-0.609,0.147,-0.718,98147.687,41.382
22.187728,-0.854,0.08,-0.061,-286.72,58.879,53.83,-0.609,0.153,-0.721,,
22.202296,-0.919,0.101,-0.045,-286.72,54.626,44.669,-0.606,0.158,-0.713,,
22.217016,-0.979,0.087,-0.052,-286.72,47.924,35.726,-0.607,0.153,-0.722,,
22.2316,-1.016,0.083,-0.053,-286.72,36.916,29.811,-0.605,0.158,-0.725,,
22.246304,-1.041,0.056,-0.049,-286.72,23.222,28.052,-0.613,0.159,-0.716,98149.203,41.378
22.265104,-1.064,0.031,-0.057,-286.72,-0.735,30.222,-0.61,0.161,-0.721,,
22.279696,-1.1,0.054,-0.07,-286.72,-18.567,35.341,-0.61,0.166,-0.712,,
22.294456,-1.132,0.034,-0.09,-286.72,-30.459,43.794,-0.609,0.16,-0.703,,
22.30908,-1.179,0.039,-0.11,-286.72,-37.765,52.903,-0.612,0.165,-0.695,,
22.323904,-1.225,0.03,-0.155,-286.72,-36.899,61.609,-0.61,0.172,-0.69,98155.516,41.373
22.338552,-1.246,-0.008,-0.173,-286.72,-27.983,68.915,-0.607,0.177,-0.683,,
22.35612,-1.276,-0.035,-0.197,-286.72,-9.669,73.028,-0.611,0.198,-0.68,,
22.37088,-1.287,-0.059,-0.19,-286.72,8.61,71.391,-0.611,0.202,-0.669,,
22.38548,-1.263,-0.074,-0.217,-286.72,29.47,67.349,-0.612,0.21,-0.681,,
22.400224,-1.274,-0.144,-0.201,-286.72,55.291,59.605,-0.608,0.228,-0.682,98168.578,41.379
22.414808,-1.279,-0.187,-0.158,-286.72,76.107,45.859,-0.612,0.227,-0.678,,
22.429376,-1.271,-0.2,-0.132,-286.72,92.575,27.904,-0.611,0.235,-0.708,,
22.448328,-1.272,-0.198,-0.121,-286.72,101.771,-2.03,-0.607,0.235,-0.719,,
22.46292,-1.259,-0.201,-0.109,-286.72,101.106,-24.64,-0.606,0.238,-0.726,,
22.47768,-1.248,-0.204,-0.058,-286.72,95.445,-42.919,-0.606,0.231,-0.744,98180.531,41.379
22.492328,-1.211,-0.193,-0.018,-286.72,91.525,-58.266,-0.611,0.22,-0.75,,
22.506968,-1.157,-0.179,0.036,-286.72,85.558,-70.499,-0.601,0.197,-0.768,,
22.521728,-1.138,-0.163,0.059,-286.72,74.183,-79.485,-0.603,0.18,-0.781,,
22.536328,-1.086,-0.127,0.055,-286.72,59.596,-84.289,-0.6,0.166,-0.781,,
22.549272,-1.041,-0.123,0.031,-286.72,47.801,-84.385,-0.599,0.156,-0.786,98182.469,41.377
22.563928,-1.026,-0.113,0.048,-286.72,36.269,-81.839,-0.596,0.134,-0.781,,
22.578592,-0.979,-0.087,0.051,-286.694,23.52,-75.425,-0.593,0.118,-0.772,,
22.593344,-0.938,-0.069,0.061,-286.554,16.809,-66.202,-0.592,0.107,-0.774,,
22.607944,-0.93,-0.056,0.064,-286.046,14.149,-56.866,-0.585,0.102,-0.766,,
22.622704,-0.914,-0.065,0.072,-285.364,12.757,-50.286,-0.587,0.086,-0.762,98187.562,41.372
22.640368,-0.892,-0.05,0.111,-283.911,15.068,-44.704,-0.581,0.07,-0.749,,
22.654936,-0.893,-0.05,0.123,-281.234,18.034,-42.928,-0.578,0.057,-0.736,,
22.669648,-0.875,-0.05,0.116,-278.793,20.685,-42.245,-0.581,0.049,-0.733,,
22.684232,-0.881,-0.071,0.13,-276.386,22.12,-40.294,-0.573,0.047,-0.732,,
22.699128,-0.874,-0.082,0.119,-274.295,23.564,-39.559,-0.573,0.04,-0.703,98199.75,41.373
22.713736,-0.903,-0.076,0.134,-271.932,26.81,-43.347,-0.571,0.026,-0.707,,
22.732464,-0.968,-0.012,0.141,-267.418,28.245,-54.548,-0.571,0.021,-0.682,,
22.747216,-1.019,0.008,0.148,-263.165,24.929,-65.196,-0.572,0.012,-0.681,,
22.761864,-1.067,0.001,0.169,-258.335,18.804,-74.06,-0.563,0.014,-0.673,,
22.77656,-1.102,0.026,0.169,-253.391,9.074,-81.244,-0.56,0.002,-0.652,98198.453,41.379
22.791192,-1.11,0.034,0.193,-249.445,-3.421,-88.069,-0.551,-0.008,-0.645,,
22.8058,-1.123,0.085,0.165,-245.437,-14.989,-91.368,-0.546,-0.014,-0.629,,
22.823584,-1.142,0.117,0.174,-241.92,-34.265,-94.859,-0.543,-0.014,-0.611,,
22.838136,-1.16,0.171,0.147,-238.42,-50.829,-93.223,-0.539,-0.016,-0.605,,
22.852808,-1.173,0.198,0.181,-235.646,-66.491,-85.19,-0.533,-0.02,-0.579,98213,41.38
22.867408,-1.183,0.234,0.179,-233.083,-82.486,-70.674,-0.525,-0.029,-0.553,,
22.881936,-1.168,0.261,0.135,-231.49,-93.949,-52.553,-0.515,-0.024,-0.517,,
22.896704,-1.168,0.318,0.07,-230.93,-102.043,-31.01,-0.511,-0.016,-0.504,,
22.9112,-1.152,0.333,-0.017,-230.886,-104.186,-12.32,-0.505,-0.01,-0.475,,
22.930112,-1.168,0.301,-0.001,-230.598,-96.355,11.498,-0.498,0,-0.471,98212.797,41.379
22.944664,-1.168,0.283,0.029,-228.576,-84.149,28.936,-0.492,0.013,-0.432,,
22.959328,-1.17,0.311,0.007,-224.122,-73.868,44.774,-0.487,0.046,-0.417,,
22.974016,-1.163,0.28,-0.105,-218.881,-65.397,56.936,-0.484,0.063,-0.407,,
22.988616,-1.15,0.265,-0.166,-215.092,-51.153,65.747,-0.481,0.089,-0.394,,
23.00332,-1.137,0.281,-0.119,-212.73,-30.993,70.49,-0.479,0.105,-0.38,98225.187,41.381
23.020936,-1.108,0.266,-0.035,-209.256,-6.081,68.827,-0.476,0.122,-0.368,,
23.035504,-1.083,0.208,-0.119,-205.835,-0.656,65.336,-0.475,0.141,-0.365,,
23.05016,-1.028,0.178,-0.199,-203.122,-5.906,62.318,-0.481,0.182,-0.363,,
23.064736,-0.949,0.188,-0.203,-202.099,-10.491,62.396,-0.481,0.206,-0.363,,
23.079512,-0.918,0.23,-0.144,-200.883,-6.247,61.022,-0.478,0.219,-0.363,98222.125,41.378
23.09412,-0.9,0.25,-0.122,-196.805,-0.228,58.756,-0.482,0.238,-0.361,,
23.112808,-0.939,0.171,-0.203,-191.529,0,62.58,-0.482,0.259,-0.373,,
23.127568,-0.96,0.139,-0.264,-190.181,-1.444,67.445,-0.475,0.293,-0.371,,
23.142128,-0.973,0.157,-0.206,-191.467,-3.063,69.44,-0.48,0.314,-0.388,,
23.15684,-0.991,0.214,-0.157,-191.45,-6.983,67.83,-0.477,0.334,-0.386,98231.687,41.378
23.171392,-0.961,0.191,-0.234,-187.863,-12.793,76.134,-0.476,0.348,-0.393,,
23.186008,-0.976,0.081,-0.276,-183.724,-15.75,92.47,-0.472,0.367,-0.398,,
23.200696,-0.967,0.043,-0.291,-181.029,-16.187,105.499,-0.464,0.392,-0.408,,
23.21808,-1.01,0.128,-0.294,-178.885,-6.816,107.153,-0.449,0.423,-0.418,,
23.2328,-1.034,0.133,-0.305,-176.146,1.05,103.469,-0.447,0.443,-0.428,98224.406,41.371
23.247328,-1.047,0.016,-0.291,-173.337,6.282,106.916,-0.44,0.463,-0.442,,
23.261824,-1.045,-0.059,-0.265,-171.894,7.648,112.543,-0.435,0.48,-0.443,,
23.276544,-1.015,-0.031,-0.298,-171.798,10.01,117.749,-0.433,0.495,-0.458,,
23.291112,-0.96,0.012,-0.337,-168.569,22.146,117.372,-0.42,0.509,-0.475,,
23.309952,-0.902,-0.015,-0.379,-162.811,39.401,111.554,-0.41,0.535,-0.508,98236.359,41.371
23.324496,-0.889,-0.1,-0.329,-159.049,55.134,107.275,-0.392,0.555,-0.515,,
23.339072,-0.891,-0.241,-0.261,-158.515,69.842,103.232,-0.39,0.559,-0.535,,
23.353848,-0.914,-0.228,-0.255,-160.387,76.825,91.411,-0.381,0.569,-0.541,,
23.36836,-0.925,-0.142,-0.303,-161.14,73.43,72.336,-0.378,0.585,-0.565,,
23.383072,-0.902,-0.162,-0.329,-161.534,71.076,60.708,-0.376,0.587,-0.582,98242.656,41.367
23.40068,-0.886,-0.307,-0.244,-161.035,84.21,55.912,-0.369,0.604,-0.626,,
23.415064,-0.911,-0.332,-0.23,-159.364,96.128,46.393,-0.36,0.61,-0.641,,
23.42972,-0.936,-0.276,-0.295,-158.585,98.332,22.89,-0.359,0.609,-0.657,,
23.44424,-0.938,-0.296,-0.283,-158.594,95.314,2.581,-0.354,0.611,-0.683,,
23.458928,-0.947,-0.374,-0.131,-157.238,95.349,-13.711,-0.35,0.616,-0.696,98245.578,41.364
23.473488,-0.968,-0.407,-0.029,-154.508,89.372,-27.834,-0.352,0.609,-0.711,,
23.487984,-0.993,-0.332,-0.073,-152.224,75.994,-40.233,-0.356,0.604,-0.731,,
23.506848,-0.996,-0.307,-0.153,-149.564,62.93,-51.616,-0.362,0.601,-0.77,,
23.521392,-1.013,-0.319,-0.114,-147.236,66.308,-58.721,-0.363,0.595,-0.778,,
23.536072,-1.039,-0.369,0.003,-143.885,77.717,-63.989,-0.365,0.588,-0.801,98252.75,41.364
23.550512,-1.078,-0.346,0.01,-139.169,80.491,-71.916,-0.371,0.578,-0.814,,
23.565056,-1.108,-0.313,-0.048,-135.17,67.55,-76.125,-0.374,0.569,-0.825,,
23.579616,-1.11,-0.303,-0.058,-131.889,50.278,-76.003,-0.38,0.558,-0.865,,
23.597136,-1.113,-0.277,0.023,-128.651,36.409,-70.91,-0.384,0.546,-0.88,,
23.611672,-1.115,-0.266,0.023,-125.3,35.481,-62.16,-0.389,0.537,-0.886,98247.656,41.368
23.626208,-1.173,-0.268,-0.036,-121.599,37.975,-54.95,-0.391,0.529,-0.919,,
23.640728,-1.229,-0.307,-0.139,-117.486,40.311,-49.831,-0.393,0.52,-0.916,,
23.655448,-1.288,-0.281,-0.037,-113.619,46.576,-48.037,-0.394,0.506,-0.923,,
23.669976,-1.363,-0.225,0.068,-108.588,57.365,-44.45,-0.399,0.487,-0.946,,
23.688848,-1.408,-0.234,0.072,-103.723,56.735,-31.859,-0.399,0.477,-0.947,98260.266,41.371
23.703416,-1.397,-0.272,-0.066,-101.929,51.179,-20.825,-0.394,0.473,-0.964,,
23.717952,-1.352,-0.303,-0.058,-101.64,62.528,-14.962,-0.392,0.468,-0.973,,
